[{"rt":21020,"response":{"less":1,"more":1,"equal":5},"question_order":[0,1,2],"type":"response","story":"babysitting","social_interaction":"reciprocity","vignette":"Consider Ryan and John, who both have two children under 10 years old. Every week, Ryan and John alternate volunteering to watch each other's children, so each of them can have a date night. How likely is it that","answer_labels":{"less":"John and Ryan are in a relationship where John has less power, status, or influence than Ryan.","more":"John and Ryan are in a relationship where John has more power, status, or influence than Ryan.","equal":"John and Ryan are in a relationship where they have equal power, status, or influence."},"trial_type":"survey-likert","trial_index":4,"time_elapsed":47309,"internal_node_id":"0.0-3.0-0.0","subject_id":"5d422e095a696a0019afa849","study_id":"6436e7076eedf62b8d53f523","session_id":"6436f5e0cc77da9f253412ae","condition_number":50,"params":{"completionMinutes":20,"basePay":"5","likertLabels":["Extremely unlikely","Unlikely","Somewhat unlikely","Neither likely nor unlikely","Somewhat likely","Likely","Extremely likely"]},"url":"https://gershmanlab.com/experiments/alicia/PRE_exp3/experiment/index.html?PROLIFIC_PID=5d422e095a696a0019afa849&STUDY_ID=6436e7076eedf62b8d53f523&SESSION_ID=6436f5e0cc77da9f253412ae&participant=50"},{"rt":24401,"response":{"less":1,"more":1,"equal":5},"question_order":[0,1,2],"type":"response","story":"scheduling","social_interaction":"reciprocity","vignette":"Consider Matt and William, who want to have a weekly joint meal at an Italian restaurant near their workplace. Matt prefers lunches, because Matt likes to have a free schedule after work. William prefers dinners because William prefers not to break up the work day by traveling somewhere after lunch. They alternate between getting lunch Tuesdays at noon, and getting dinner Wednesdays at 7pm. How likely is it that","answer_labels":{"less":"Matt and William are in a relationship where Matt has less power, status, or influence than William.","more":"Matt and William are in a relationship where Matt has more power, status, or influence than William.","equal":"Matt and William are in a relationship where they have equal power, status, or influence."},"trial_type":"survey-likert","trial_index":6,"time_elapsed":73224,"internal_node_id":"0.0-3.0-0.1","subject_id":"5d422e095a696a0019afa849","study_id":"6436e7076eedf62b8d53f523","session_id":"6436f5e0cc77da9f253412ae","condition_number":50,"params":{"completionMinutes":20,"basePay":"5","likertLabels":["Extremely unlikely","Unlikely","Somewhat unlikely","Neither likely nor unlikely","Somewhat likely","Likely","Extremely likely"]},"url":"https://gershmanlab.com/experiments/alicia/PRE_exp3/experiment/index.html?PROLIFIC_PID=5d422e095a696a0019afa849&STUDY_ID=6436e7076eedf62b8d53f523&SESSION_ID=6436f5e0cc77da9f253412ae&participant=50"},{"rt":15046,"response":{"less":1,"more":1,"equal":5},"question_order":[0,1,2],"type":"response","story":"architects","social_interaction":"reciprocity","vignette":"Consider Sonia and Liana, who work as architects at the same company. They work on the same team, where they work together on their designs. Sonia and Liana alternate meticulously double-checking their finished designs before they send them out. How likely is it that","answer_labels":{"less":"Sonia and Liana are in a relationship where Sonia has less power, status, or influence than Liana.","more":"Sonia and Liana are in a relationship where Sonia has more power, status, or influence than Liana.","equal":"Sonia and Liana are in a relationship where they have equal power, status, or influence."},"trial_type":"survey-likert","trial_index":8,"time_elapsed":90590,"internal_node_id":"0.0-3.0-0.2","subject_id":"5d422e095a696a0019afa849","study_id":"6436e7076eedf62b8d53f523","session_id":"6436f5e0cc77da9f253412ae","condition_number":50,"params":{"completionMinutes":20,"basePay":"5","likertLabels":["Extremely unlikely","Unlikely","Somewhat unlikely","Neither likely nor unlikely","Somewhat likely","Likely","Extremely likely"]},"url":"https://gershmanlab.com/experiments/alicia/PRE_exp3/experiment/index.html?PROLIFIC_PID=5d422e095a696a0019afa849&STUDY_ID=6436e7076eedf62b8d53f523&SESSION_ID=6436f5e0cc77da9f253412ae&participant=50"},{"rt":14100,"response":{"less":1,"more":1,"equal":5},"question_order":[0,1,2],"type":"response","story":"restaurant","social_interaction":"reciprocity","vignette":"Consider Avery and Grace, who go out to eat together every Thursday after work. There are two restaurants near their work: a Chinese restaurant, and an Indian restaurant. Avery prefers the Chinese restaurant, while Grace prefers the Indian restaurant. Each week, they alternate going to the Chinese restaurant and going to the Indian restaurant. How likely is it that","answer_labels":{"less":"Grace and Avery are in a relationship where Grace has less power, status, or influence than Avery.","more":"Grace and Avery are in a relationship where Grace has more power, status, or influence than Avery.","equal":"Grace and Avery are in a relationship where they have equal power, status, or influence."},"trial_type":"survey-likert","trial_index":10,"time_elapsed":107017,"internal_node_id":"0.0-3.0-0.3","subject_id":"5d422e095a696a0019afa849","study_id":"6436e7076eedf62b8d53f523","session_id":"6436f5e0cc77da9f253412ae","condition_number":50,"params":{"completionMinutes":20,"basePay":"5","likertLabels":["Extremely unlikely","Unlikely","Somewhat unlikely","Neither likely nor unlikely","Somewhat likely","Likely","Extremely likely"]},"url":"https://gershmanlab.com/experiments/alicia/PRE_exp3/experiment/index.html?PROLIFIC_PID=5d422e095a696a0019afa849&STUDY_ID=6436e7076eedf62b8d53f523&SESSION_ID=6436f5e0cc77da9f253412ae&participant=50"},{"rt":23939,"response":{"less":5,"more":2,"equal":2},"question_order":[0,1,2],"type":"response","story":"meeting prep","social_interaction":"precedent","vignette":"Consider Chloe and Victoria, who work at the same news station. They meet once a week. Chloe always prepares the agenda for each meeting and books the meeting room. How likely is it that","answer_labels":{"less":"Chloe and Victoria are in a relationship where Chloe has less power, status, or influence than Victoria.","more":"Chloe and Victoria are in a relationship where Chloe has more power, status, or influence than Victoria.","equal":"Chloe and Victoria are in a relationship where they have equal power, status, or influence."},"trial_type":"survey-likert","trial_index":12,"time_elapsed":132720,"internal_node_id":"0.0-3.0-0.4","subject_id":"5d422e095a696a0019afa849","study_id":"6436e7076eedf62b8d53f523","session_id":"6436f5e0cc77da9f253412ae","condition_number":50,"params":{"completionMinutes":20,"basePay":"5","likertLabels":["Extremely unlikely","Unlikely","Somewhat unlikely","Neither likely nor unlikely","Somewhat likely","Likely","Extremely likely"]},"url":"https://gershmanlab.com/experiments/alicia/PRE_exp3/experiment/index.html?PROLIFIC_PID=5d422e095a696a0019afa849&STUDY_ID=6436e7076eedf62b8d53f523&SESSION_ID=6436f5e0cc77da9f253412ae&participant=50"},{"rt":21712,"response":{"less":1,"more":1,"equal":4},"question_order":[0,1,2],"type":"response","story":"groceries","social_interaction":"precedent","vignette":"Consider Dylan and Caleb, who live on the 5th floor of a walkup in Manhattan, with a steep narrow staircase. Each of them comes home from the grocery store with many heavy bags about once a week, and Caleb always helps carry Dylan's groceries up the stairs. How likely is it that","answer_labels":{"less":"Caleb and Dylan are in a relationship where Caleb has less power, status, or influence than Dylan.","more":"Caleb are in a relationship where Caleb has more power, status, or influence than Dylan.","equal":"Caleb and Dylan are in a relationship where they have equal power, status, or influence."},"trial_type":"survey-likert","trial_index":14,"time_elapsed":156454,"internal_node_id":"0.0-3.0-0.5","subject_id":"5d422e095a696a0019afa849","study_id":"6436e7076eedf62b8d53f523","session_id":"6436f5e0cc77da9f253412ae","condition_number":50,"params":{"completionMinutes":20,"basePay":"5","likertLabels":["Extremely unlikely","Unlikely","Somewhat unlikely","Neither likely nor unlikely","Somewhat likely","Likely","Extremely likely"]},"url":"https://gershmanlab.com/experiments/alicia/PRE_exp3/experiment/index.html?PROLIFIC_PID=5d422e095a696a0019afa849&STUDY_ID=6436e7076eedf62b8d53f523&SESSION_ID=6436f5e0cc77da9f253412ae&participant=50"},{"rt":26303,"response":{"less":1,"more":1,"equal":5},"question_order":[0,1,2],"type":"response","story":"family meals","social_interaction":"no_interaction","vignette":"Consider Sue and Martha, who each are parts of large families. Sue’s family gets together for key religious holidays four times a year, gathering at Sue’s house where Sue cooks all the food, serves it, and then cleans up after dinner. Martha's family gets together for key religious holidays four times a year, gathering at Martha's house where Martha cooks all the food, serves it, and then cleans up after dinner.","answer_labels":{"less":"Sue and Martha are in a relationship where Sue has less power, status, or influence than Martha.","more":"Sue and Martha are in a relationship where Sue has more power, status, or influence than Martha.","equal":"Sue and Martha are in a relationship where they have equal power, status, or influence."},"trial_type":"survey-likert","trial_index":16,"time_elapsed":185080,"internal_node_id":"0.0-3.0-0.6","subject_id":"5d422e095a696a0019afa849","study_id":"6436e7076eedf62b8d53f523","session_id":"6436f5e0cc77da9f253412ae","condition_number":50,"params":{"completionMinutes":20,"basePay":"5","likertLabels":["Extremely unlikely","Unlikely","Somewhat unlikely","Neither likely nor unlikely","Somewhat likely","Likely","Extremely likely"]},"url":"https://gershmanlab.com/experiments/alicia/PRE_exp3/experiment/index.html?PROLIFIC_PID=5d422e095a696a0019afa849&STUDY_ID=6436e7076eedf62b8d53f523&SESSION_ID=6436f5e0cc77da9f253412ae&participant=50"},{"rt":22889,"response":{"less":3,"more":3,"equal":5},"question_order":[0,1,2],"type":"response","story":"coffee","social_interaction":"no_interaction","vignette":"Consider Andrew and Bob, who work in the same field, and frequent the same coffee shop. Andrew buys coffee for himself once a week before heading into work. Bob buys coffee for himself once a week before heading into work. How likely is it that","answer_labels":{"less":"Bob and Andrew are in a relationship where Bob has less power, status, or influence than Andrew.","more":"Bob and Andrew are in a relationship where Bob has more power, status, influence than Andrew.","equal":"Bob and Andrew have equal power, status, or influence."},"trial_type":"survey-likert","trial_index":18,"time_elapsed":209741,"internal_node_id":"0.0-3.0-0.7","subject_id":"5d422e095a696a0019afa849","study_id":"6436e7076eedf62b8d53f523","session_id":"6436f5e0cc77da9f253412ae","condition_number":50,"params":{"completionMinutes":20,"basePay":"5","likertLabels":["Extremely unlikely","Unlikely","Somewhat unlikely","Neither likely nor unlikely","Somewhat likely","Likely","Extremely likely"]},"url":"https://gershmanlab.com/experiments/alicia/PRE_exp3/experiment/index.html?PROLIFIC_PID=5d422e095a696a0019afa849&STUDY_ID=6436e7076eedf62b8d53f523&SESSION_ID=6436f5e0cc77da9f253412ae&participant=50"},{"rt":19888,"response":{"less":1,"more":4,"equal":2},"question_order":[0,1,2],"type":"response","story":"group project","social_interaction":"precedent","vignette":"Consider Maxwell and Ralph, two people at the same company who are assigned to work together on the same project. Maxwell contributes most of the ideas, and also delegates tasks to Ralph. Each time they meet, Maxwell decides what to do next. How likely is it that","answer_labels":{"less":"Maxwell and Ralph are in a relationship where Maxwell has less power, status, or influence than Ralph.","more":"Maxwell and Ralph are in a relationship where Maxwell has more power, status, or influence than Ralph.","equal":"Maxwell and Ralph are in a relationship where they have equal power, status, or influence."},"trial_type":"survey-likert","trial_index":20,"time_elapsed":231396,"internal_node_id":"0.0-3.0-0.8","subject_id":"5d422e095a696a0019afa849","study_id":"6436e7076eedf62b8d53f523","session_id":"6436f5e0cc77da9f253412ae","condition_number":50,"params":{"completionMinutes":20,"basePay":"5","likertLabels":["Extremely unlikely","Unlikely","Somewhat unlikely","Neither likely nor unlikely","Somewhat likely","Likely","Extremely likely"]},"url":"https://gershmanlab.com/experiments/alicia/PRE_exp3/experiment/index.html?PROLIFIC_PID=5d422e095a696a0019afa849&STUDY_ID=6436e7076eedf62b8d53f523&SESSION_ID=6436f5e0cc77da9f253412ae&participant=50"},{"rt":26699,"response":{"less":1,"more":2,"equal":4},"question_order":[0,1,2],"type":"response","story":"housemates","social_interaction":"no_interaction","vignette":"Consider Sarah and Anne, who both live in the same old building. Sarah noticed that some pipes and wires were damaged. Anne noticed that the shared facilities needed detergent and batteries. They each wrote a list and gave it to the building superintendent. How likely is it that","answer_labels":{"less":"Anne and Sarah are in a relationship where Anne has less power, status, or influence than Sarah.","more":"Anne and Sarah are in a relationship where Anne has more power, status, or influence than Sarah.","equal":"Anne and Sarah are in a relationship where they have equal power, status, or influence."},"trial_type":"survey-likert","trial_index":22,"time_elapsed":259886,"internal_node_id":"0.0-3.0-0.9","subject_id":"5d422e095a696a0019afa849","study_id":"6436e7076eedf62b8d53f523","session_id":"6436f5e0cc77da9f253412ae","condition_number":50,"params":{"completionMinutes":20,"basePay":"5","likertLabels":["Extremely unlikely","Unlikely","Somewhat unlikely","Neither likely nor unlikely","Somewhat likely","Likely","Extremely likely"]},"url":"https://gershmanlab.com/experiments/alicia/PRE_exp3/experiment/index.html?PROLIFIC_PID=5d422e095a696a0019afa849&STUDY_ID=6436e7076eedf62b8d53f523&SESSION_ID=6436f5e0cc77da9f253412ae&participant=50"},{"rt":29818,"response":{"less":4,"more":2,"equal":4},"question_order":[0,1,2],"type":"response","story":"police","social_interaction":"no_interaction","vignette":"Consider Justin and Jarred, who are both police officers in the same city. Each day, Justin goes to the office at 6am to do the day's paperwork. The first thing Jarred does every day is go straight to his patrol car. How likely is it that","answer_labels":{"less":"Justin and Jarred are in a relationship where Justin has less power, status, or influence than Jarred.","more":"Justin and Jarred are in a relationship where Justin has more power, status, or influence than Jarred.","equal":"Justin and Jarred are in a relationship where they have equal power, status, or influence."},"trial_type":"survey-likert","trial_index":24,"time_elapsed":291725,"internal_node_id":"0.0-3.0-0.10","subject_id":"5d422e095a696a0019afa849","study_id":"6436e7076eedf62b8d53f523","session_id":"6436f5e0cc77da9f253412ae","condition_number":50,"params":{"completionMinutes":20,"basePay":"5","likertLabels":["Extremely unlikely","Unlikely","Somewhat unlikely","Neither likely nor unlikely","Somewhat likely","Likely","Extremely likely"]},"url":"https://gershmanlab.com/experiments/alicia/PRE_exp3/experiment/index.html?PROLIFIC_PID=5d422e095a696a0019afa849&STUDY_ID=6436e7076eedf62b8d53f523&SESSION_ID=6436f5e0cc77da9f253412ae&participant=50"},{"rt":19446,"response":{"less":1,"more":1,"equal":5},"question_order":[0,1,2],"type":"response","story":"weekend","social_interaction":"reciprocity","vignette":"Consider Abby and Evelyn, who want to spend time together during weekends. Abby prefers waking up early to do intense outdoor activities, while Evelyn prefers sleeping in, getting brunch, and walking around the city. Every weekend, Abby and Evelyn alternate waking up early to do intense outdoor activities, and getting brunch and walking around the city. How likely is it that","answer_labels":{"less":"Evelyn and Abby are in a relationship where Evelyn has less power, status, or influence than Abby.","more":"Evelyn and Abby are in a relationship where Evelyn has more power, status, or influence than Abby.","equal":"Evelyn and Abby are in a relationship where they have equal power, status, or influence."},"trial_type":"survey-likert","trial_index":26,"time_elapsed":312692,"internal_node_id":"0.0-3.0-0.11","subject_id":"5d422e095a696a0019afa849","study_id":"6436e7076eedf62b8d53f523","session_id":"6436f5e0cc77da9f253412ae","condition_number":50,"params":{"completionMinutes":20,"basePay":"5","likertLabels":["Extremely unlikely","Unlikely","Somewhat unlikely","Neither likely nor unlikely","Somewhat likely","Likely","Extremely likely"]},"url":"https://gershmanlab.com/experiments/alicia/PRE_exp3/experiment/index.html?PROLIFIC_PID=5d422e095a696a0019afa849&STUDY_ID=6436e7076eedf62b8d53f523&SESSION_ID=6436f5e0cc77da9f253412ae&participant=50"},{"rt":20251,"response":{"less":1,"more":1,"equal":5},"question_order":[0,1,2],"type":"response","story":"gifts","social_interaction":"no_interaction","vignette":"Consider two families, the Lee family and the Min family. Every year, the Lee family gives the Wong family a precious and expensive gift. Every year, the Min family gives the Chen familly a precious and expensive gift. How likely is it that","answer_labels":{"less":"The Lee family and the Min family are in a relationship where the Lee family has less power, status, or influence than the Min family.","more":"The Lee family and the Min family are in a relationship where the Lee family has more power, status, or influence than the Min family.","equal":"The Lee family and the Min family are in a relationship where they have equal power, status, or influence."},"trial_type":"survey-likert","trial_index":28,"time_elapsed":334462,"internal_node_id":"0.0-3.0-0.12","subject_id":"5d422e095a696a0019afa849","study_id":"6436e7076eedf62b8d53f523","session_id":"6436f5e0cc77da9f253412ae","condition_number":50,"params":{"completionMinutes":20,"basePay":"5","likertLabels":["Extremely unlikely","Unlikely","Somewhat unlikely","Neither likely nor unlikely","Somewhat likely","Likely","Extremely likely"]},"url":"https://gershmanlab.com/experiments/alicia/PRE_exp3/experiment/index.html?PROLIFIC_PID=5d422e095a696a0019afa849&STUDY_ID=6436e7076eedf62b8d53f523&SESSION_ID=6436f5e0cc77da9f253412ae&participant=50"},{"rt":14416,"response":{"less":4,"more":3,"equal":4},"question_order":[0,1,2],"type":"response","story":"concerts","social_interaction":"precedent","vignette":"Consider Kevin and Allen, who frequently go to concerts together. Whenever they go to a concert together, Kevin always pays for the tickets. How likely is it that","answer_labels":{"less":"Kevin and Allen are in a relationship where Kevin has less power, status, or influence than Allen.","more":"Kevin and Allen are in a relationship where Kevin has more power, status, or influence than Allen.","equal":"Kevin and Allen are in a relationship where they have equal power, status, or influence."},"trial_type":"survey-likert","trial_index":30,"time_elapsed":350397,"internal_node_id":"0.0-3.0-0.13","subject_id":"5d422e095a696a0019afa849","study_id":"6436e7076eedf62b8d53f523","session_id":"6436f5e0cc77da9f253412ae","condition_number":50,"params":{"completionMinutes":20,"basePay":"5","likertLabels":["Extremely unlikely","Unlikely","Somewhat unlikely","Neither likely nor unlikely","Somewhat likely","Likely","Extremely likely"]},"url":"https://gershmanlab.com/experiments/alicia/PRE_exp3/experiment/index.html?PROLIFIC_PID=5d422e095a696a0019afa849&STUDY_ID=6436e7076eedf62b8d53f523&SESSION_ID=6436f5e0cc77da9f253412ae&participant=50"},{"rt":20514,"response":{"less":2,"more":2,"equal":4},"question_order":[0,1,2],"type":"response","story":"conversation","social_interaction":"no_interaction","vignette":"Consider Alice and Angela, who work at the same company. Alice has a one-hour weekly meeting with Cathy, where Alice spends most of the meeting listening and asking questions. Angela has a one-hour weekly meeting with Emily, where Angela spends most of the one-hour meeting listening and asking questions. How likely is it that","answer_labels":{"less":"Angela and Alice are in a relationship where Angela has less power, status, or influence than Alice.","more":"Angela and Alice are in a relationship where Angela has more power, status, or influence than Alice.","equal":"Angela and Alice are in a relationship where they have equal power, status, or influence."},"trial_type":"survey-likert","trial_index":32,"time_elapsed":373232,"internal_node_id":"0.0-3.0-0.14","subject_id":"5d422e095a696a0019afa849","study_id":"6436e7076eedf62b8d53f523","session_id":"6436f5e0cc77da9f253412ae","condition_number":50,"params":{"completionMinutes":20,"basePay":"5","likertLabels":["Extremely unlikely","Unlikely","Somewhat unlikely","Neither likely nor unlikely","Somewhat likely","Likely","Extremely likely"]},"url":"https://gershmanlab.com/experiments/alicia/PRE_exp3/experiment/index.html?PROLIFIC_PID=5d422e095a696a0019afa849&STUDY_ID=6436e7076eedf62b8d53f523&SESSION_ID=6436f5e0cc77da9f253412ae&participant=50"},{"rt":17783,"response":{"less":1,"more":4,"equal":2},"question_order":[0,1,2],"type":"response","story":"feedback","social_interaction":"precedent","vignette":"Consider Taylor and Samantha, who are both fiction writers living in the same city. They frequently attend the same group writing workshops. Samantha often shares work in progress, and Taylor gives her feedback on it.","answer_labels":{"less":"Taylor and Samantha are in a relationship where Taylor has less power, status, or influence than Samantha.","more":"Taylor and Samantha are in a relationship where Taylor has more power, status, or influence than Samantha.","equal":"Taylor and Samantha are in a relationship where they have equal power, status, or influence."},"trial_type":"survey-likert","trial_index":34,"time_elapsed":392786,"internal_node_id":"0.0-3.0-0.15","subject_id":"5d422e095a696a0019afa849","study_id":"6436e7076eedf62b8d53f523","session_id":"6436f5e0cc77da9f253412ae","condition_number":50,"params":{"completionMinutes":20,"basePay":"5","likertLabels":["Extremely unlikely","Unlikely","Somewhat unlikely","Neither likely nor unlikely","Somewhat likely","Likely","Extremely likely"]},"url":"https://gershmanlab.com/experiments/alicia/PRE_exp3/experiment/index.html?PROLIFIC_PID=5d422e095a696a0019afa849&STUDY_ID=6436e7076eedf62b8d53f523&SESSION_ID=6436f5e0cc77da9f253412ae&participant=50"},{"rt":30915,"response":{"less":3,"more":2,"equal":3},"question_order":[0,1,2],"type":"response","story":"meeting location","social_interaction":"precedent","vignette":"Consider Ethan and Benjamin, who work at the same Boston-area nonprofit. They meet once a week. Every week, Ethan walks to Benjamin’s office, where they have the meeting. How likely is it that","answer_labels":{"less":"Ethan and Benjamin are in a relationship where Ethan has less power, status, or influence than Benjamin.","more":"Ethan and Benjamin are in a relationship where Ethan has more power, status, or influence than Benjamin.","equal":"Ethan and Benjamin are in a relationship where they have equal power, status, or influence."},"trial_type":"survey-likert","trial_index":36,"time_elapsed":425474,"internal_node_id":"0.0-3.0-0.16","subject_id":"5d422e095a696a0019afa849","study_id":"6436e7076eedf62b8d53f523","session_id":"6436f5e0cc77da9f253412ae","condition_number":50,"params":{"completionMinutes":20,"basePay":"5","likertLabels":["Extremely unlikely","Unlikely","Somewhat unlikely","Neither likely nor unlikely","Somewhat likely","Likely","Extremely likely"]},"url":"https://gershmanlab.com/experiments/alicia/PRE_exp3/experiment/index.html?PROLIFIC_PID=5d422e095a696a0019afa849&STUDY_ID=6436e7076eedf62b8d53f523&SESSION_ID=6436f5e0cc77da9f253412ae&participant=50"},{"rt":15985,"response":{"less":1,"more":1,"equal":5},"question_order":[0,1,2],"type":"response","story":"fundraising","social_interaction":"reciprocity","vignette":"Consider Caroline and Bella, who both frequently run for charity, as a team. They have to raise money for their charity to enter the race. Each time they enter a race, Caroline and Bella alternate taking care of the advertising and fundraising, contacting their friends to ask them if they would like to donate to their charity. How likely is it that","answer_labels":{"less":"Caroline and Bella are in a relationship where Caroline has less power, status, or influence than Bella.","more":"Caroline and Bella are in a relationship where Caroline has more power, status, or influence than Bella.","equal":"Caroline and Bella have equal power, status, or influence."},"trial_type":"survey-likert","trial_index":38,"time_elapsed":443781,"internal_node_id":"0.0-3.0-0.17","subject_id":"5d422e095a696a0019afa849","study_id":"6436e7076eedf62b8d53f523","session_id":"6436f5e0cc77da9f253412ae","condition_number":50,"params":{"completionMinutes":20,"basePay":"5","likertLabels":["Extremely unlikely","Unlikely","Somewhat unlikely","Neither likely nor unlikely","Somewhat likely","Likely","Extremely likely"]},"url":"https://gershmanlab.com/experiments/alicia/PRE_exp3/experiment/index.html?PROLIFIC_PID=5d422e095a696a0019afa849&STUDY_ID=6436e7076eedf62b8d53f523&SESSION_ID=6436f5e0cc77da9f253412ae&participant=50"},{"rt":11620,"response":{"less":6,"more":0,"equal":6},"question_order":[0,1,2],"type":"response","story":"","social_interaction":"attention","vignette":"Thank you for contributing to this study! This page is an attention check so we can make sure you're not a bot and can award you your pay when you complete the study.","answer_labels":{"less":"Please select \"extremely likely\" for this question.","more":"Please select \"extremely unlikely\" for this question.","equal":"Please select \"extremely likely\" for this question."},"trial_type":"survey-likert","trial_index":40,"time_elapsed":456919,"internal_node_id":"0.0-4.0","subject_id":"5d422e095a696a0019afa849","study_id":"6436e7076eedf62b8d53f523","session_id":"6436f5e0cc77da9f253412ae","condition_number":50,"params":{"completionMinutes":20,"basePay":"5","likertLabels":["Extremely unlikely","Unlikely","Somewhat unlikely","Neither likely nor unlikely","Somewhat likely","Likely","Extremely likely"]},"url":"https://gershmanlab.com/experiments/alicia/PRE_exp3/experiment/index.html?PROLIFIC_PID=5d422e095a696a0019afa849&STUDY_ID=6436e7076eedf62b8d53f523&SESSION_ID=6436f5e0cc77da9f253412ae&participant=50","passAttentionCheck":true},{"rt":11414,"response":{"gender":"female","age":"48","understood":"yes","comments":"            "},"type":"response","trial_type":"survey-html-form","trial_index":41,"time_elapsed":468336,"internal_node_id":"0.0-5.0","subject_id":"5d422e095a696a0019afa849","study_id":"6436e7076eedf62b8d53f523","session_id":"6436f5e0cc77da9f253412ae","condition_number":50,"params":{"completionMinutes":20,"basePay":"5","likertLabels":["Extremely unlikely","Unlikely","Somewhat unlikely","Neither likely nor unlikely","Somewhat likely","Likely","Extremely likely"]},"url":"https://gershmanlab.com/experiments/alicia/PRE_exp3/experiment/index.html?PROLIFIC_PID=5d422e095a696a0019afa849&STUDY_ID=6436e7076eedf62b8d53f523&SESSION_ID=6436f5e0cc77da9f253412ae&participant=50"}]