[{"rt":13447,"response":{"less":3,"more":3,"equal":6},"question_order":[0,1,2],"type":"response","story":"architects","social_interaction":"no_interaction","vignette":"Consider Sonia and Liana, who work as architects at the same company, but on different teams. Each of them has a system of meticulously double-checking their own designs before they send them out. How likely is it that","answer_labels":{"less":"Sonia and Liana are in a relationship where Sonia has less power, status, or influence than Liana.","more":"Sonia and Liana are in a relationship where Sonia has more power, status, or influence than Liana.","equal":"Sonia and Liana are in a relationship where they have equal power, status, or influence."},"trial_type":"survey-likert","trial_index":4,"time_elapsed":34043,"internal_node_id":"0.0-3.0-0.0","subject_id":"5e701badffc1a95eacebdf6f","study_id":"6436e7076eedf62b8d53f522","session_id":"6436f5b234e47a55e714b9e2","condition_number":45,"params":{"completionMinutes":20,"basePay":"5","likertLabels":["Extremely unlikely","Unlikely","Somewhat unlikely","Neither likely nor unlikely","Somewhat likely","Likely","Extremely likely"]},"url":"https://gershmanlab.com/experiments/alicia/PRE_exp3/experiment/index.html?PROLIFIC_PID=5e701badffc1a95eacebdf6f&STUDY_ID=6436e7076eedf62b8d53f522&SESSION_ID=6436f5b234e47a55e714b9e2&participant=45"},{"rt":23472,"response":{"less":1,"more":5,"equal":3},"question_order":[0,1,2],"type":"response","story":"family meals","social_interaction":"precedent","vignette":"Consider Sue and Martha, who are part of the same family. Four times a year, the whole family gets together for key religious holidays. Every time, the family gathers at Sue’s house. Sue cooks all the food, serves it, and then cleans up after dinner. Martha is very appreciative, and gives Sue a big hug and a warm thank you. How likely is it that","answer_labels":{"less":"Sue and Martha are in a relationship where Sue has less power, status, or influence than Martha.","more":"Sue and Martha are in a relationship where Sue has more power, status, or influence than Martha.","equal":"Sue and Martha are in a relationship where they have equal power, status, or influence."},"trial_type":"survey-likert","trial_index":6,"time_elapsed":59284,"internal_node_id":"0.0-3.0-0.1","subject_id":"5e701badffc1a95eacebdf6f","study_id":"6436e7076eedf62b8d53f522","session_id":"6436f5b234e47a55e714b9e2","condition_number":45,"params":{"completionMinutes":20,"basePay":"5","likertLabels":["Extremely unlikely","Unlikely","Somewhat unlikely","Neither likely nor unlikely","Somewhat likely","Likely","Extremely likely"]},"url":"https://gershmanlab.com/experiments/alicia/PRE_exp3/experiment/index.html?PROLIFIC_PID=5e701badffc1a95eacebdf6f&STUDY_ID=6436e7076eedf62b8d53f522&SESSION_ID=6436f5b234e47a55e714b9e2&participant=45"},{"rt":11475,"response":{"less":3,"more":3,"equal":5},"question_order":[0,1,2],"type":"response","story":"housemates","social_interaction":"precedent","vignette":"Consider Sarah and Anne, who both live in the same old building. Any time Sarah notices something damaged or missing or needed for the house, like pipes or wires or detergent or batteries, she writes it on a list. Each week, Anne completes all of the tasks on the list. How likely is it that","answer_labels":{"less":"Anne and Sarah are in a relationship where Anne has less power, status, or influence than Sarah.","more":"Anne and Sarah are in a relationship where Anne has more power, status, or influence than Sarah.","equal":"Anne and Sarah are in a relationship where they have equal power, status, or influence."},"trial_type":"survey-likert","trial_index":8,"time_elapsed":73081,"internal_node_id":"0.0-3.0-0.2","subject_id":"5e701badffc1a95eacebdf6f","study_id":"6436e7076eedf62b8d53f522","session_id":"6436f5b234e47a55e714b9e2","condition_number":45,"params":{"completionMinutes":20,"basePay":"5","likertLabels":["Extremely unlikely","Unlikely","Somewhat unlikely","Neither likely nor unlikely","Somewhat likely","Likely","Extremely likely"]},"url":"https://gershmanlab.com/experiments/alicia/PRE_exp3/experiment/index.html?PROLIFIC_PID=5e701badffc1a95eacebdf6f&STUDY_ID=6436e7076eedf62b8d53f522&SESSION_ID=6436f5b234e47a55e714b9e2&participant=45"},{"rt":10921,"response":{"less":1,"more":5,"equal":3},"question_order":[0,1,2],"type":"response","story":"concerts","social_interaction":"precedent","vignette":"Consider Kevin and Allen, who frequently go to concerts together. Whenever they go to a concert together, Kevin always pays for the tickets. How likely is it that","answer_labels":{"less":"Kevin and Allen are in a relationship where Kevin has less power, status, or influence than Allen.","more":"Kevin and Allen are in a relationship where Kevin has more power, status, or influence than Allen.","equal":"Kevin and Allen are in a relationship where they have equal power, status, or influence."},"trial_type":"survey-likert","trial_index":10,"time_elapsed":85526,"internal_node_id":"0.0-3.0-0.3","subject_id":"5e701badffc1a95eacebdf6f","study_id":"6436e7076eedf62b8d53f522","session_id":"6436f5b234e47a55e714b9e2","condition_number":45,"params":{"completionMinutes":20,"basePay":"5","likertLabels":["Extremely unlikely","Unlikely","Somewhat unlikely","Neither likely nor unlikely","Somewhat likely","Likely","Extremely likely"]},"url":"https://gershmanlab.com/experiments/alicia/PRE_exp3/experiment/index.html?PROLIFIC_PID=5e701badffc1a95eacebdf6f&STUDY_ID=6436e7076eedf62b8d53f522&SESSION_ID=6436f5b234e47a55e714b9e2&participant=45"},{"rt":9593,"response":{"less":3,"more":3,"equal":5},"question_order":[0,1,2],"type":"response","story":"coffee","social_interaction":"no_interaction","vignette":"Consider Andrew and Bob, who work in the same field, and frequent the same coffee shop. Andrew buys coffee for himself once a week before heading into work. Bob buys coffee for himself once a week before heading into work. How likely is it that","answer_labels":{"less":"Bob and Andrew are in a relationship where Bob has less power, status, or influence than Andrew.","more":"Bob and Andrew are in a relationship where Bob has more power, status, influence than Andrew.","equal":"Bob and Andrew have equal power, status, or influence."},"trial_type":"survey-likert","trial_index":12,"time_elapsed":96896,"internal_node_id":"0.0-3.0-0.4","subject_id":"5e701badffc1a95eacebdf6f","study_id":"6436e7076eedf62b8d53f522","session_id":"6436f5b234e47a55e714b9e2","condition_number":45,"params":{"completionMinutes":20,"basePay":"5","likertLabels":["Extremely unlikely","Unlikely","Somewhat unlikely","Neither likely nor unlikely","Somewhat likely","Likely","Extremely likely"]},"url":"https://gershmanlab.com/experiments/alicia/PRE_exp3/experiment/index.html?PROLIFIC_PID=5e701badffc1a95eacebdf6f&STUDY_ID=6436e7076eedf62b8d53f522&SESSION_ID=6436f5b234e47a55e714b9e2&participant=45"},{"rt":8924,"response":{"less":3,"more":3,"equal":5},"question_order":[0,1,2],"type":"response","story":"babysitting","social_interaction":"no_interaction","vignette":"Consider Ryan and John, who both have two children under 10 years old. Every week, Ryan volunteers to watch his children, so his partner Elliot can have some focused time to work. John volunteers to watch his children, so his partner Cody can have some focused time to work.","answer_labels":{"less":"John and Ryan are in a relationship where John has less power, status, or influence than Ryan.","more":"John and Ryan are in a relationship where John has more power, status, or influence than Ryan.","equal":"John and Ryan are in a relationship where they have equal power, status, or influence."},"trial_type":"survey-likert","trial_index":14,"time_elapsed":108146,"internal_node_id":"0.0-3.0-0.5","subject_id":"5e701badffc1a95eacebdf6f","study_id":"6436e7076eedf62b8d53f522","session_id":"6436f5b234e47a55e714b9e2","condition_number":45,"params":{"completionMinutes":20,"basePay":"5","likertLabels":["Extremely unlikely","Unlikely","Somewhat unlikely","Neither likely nor unlikely","Somewhat likely","Likely","Extremely likely"]},"url":"https://gershmanlab.com/experiments/alicia/PRE_exp3/experiment/index.html?PROLIFIC_PID=5e701badffc1a95eacebdf6f&STUDY_ID=6436e7076eedf62b8d53f522&SESSION_ID=6436f5b234e47a55e714b9e2&participant=45"},{"rt":9942,"response":{"less":3,"more":5,"equal":3},"question_order":[0,1,2],"type":"response","story":"gifts","social_interaction":"precedent","vignette":"Consider two families, the Lee family and the Min family. Every year, each member of the Lee family gives the Min family a precious and expensive gift. How likely is it that","answer_labels":{"less":"The Lee family and the Min family are in a relationship where the Lee family has less power, status, or influence than the Min family.","more":"The Lee family and the Min family are in a relationship where the Lee family has more power, status, or influence than the Min family.","equal":"The Lee family and the Min family are in a relationship where they have equal power, status, or influence."},"trial_type":"survey-likert","trial_index":16,"time_elapsed":119857,"internal_node_id":"0.0-3.0-0.6","subject_id":"5e701badffc1a95eacebdf6f","study_id":"6436e7076eedf62b8d53f522","session_id":"6436f5b234e47a55e714b9e2","condition_number":45,"params":{"completionMinutes":20,"basePay":"5","likertLabels":["Extremely unlikely","Unlikely","Somewhat unlikely","Neither likely nor unlikely","Somewhat likely","Likely","Extremely likely"]},"url":"https://gershmanlab.com/experiments/alicia/PRE_exp3/experiment/index.html?PROLIFIC_PID=5e701badffc1a95eacebdf6f&STUDY_ID=6436e7076eedf62b8d53f522&SESSION_ID=6436f5b234e47a55e714b9e2&participant=45"},{"rt":14134,"response":{"less":3,"more":3,"equal":5},"question_order":[0,1,2],"type":"response","story":"fundraising","social_interaction":"no_interaction","vignette":"Consider Caroline and Bella, who both frequently run for charity. Each of them has to raise money for their charity to enter the race. Whenever Caroline enters a charity race, she asks her friends to donate money to her charity. Whenever Bella enters a charity race, she asks her friends to donate to her charity. How likely is it that","answer_labels":{"less":"Caroline and Bella are in a relationship where Caroline has less power, status, or influence than Bella.","more":"Caroline and Bella are in a relationship where Caroline has more power, status, or influence than Bella.","equal":"Caroline and Bella have equal power, status, or influence."},"trial_type":"survey-likert","trial_index":18,"time_elapsed":135514,"internal_node_id":"0.0-3.0-0.7","subject_id":"5e701badffc1a95eacebdf6f","study_id":"6436e7076eedf62b8d53f522","session_id":"6436f5b234e47a55e714b9e2","condition_number":45,"params":{"completionMinutes":20,"basePay":"5","likertLabels":["Extremely unlikely","Unlikely","Somewhat unlikely","Neither likely nor unlikely","Somewhat likely","Likely","Extremely likely"]},"url":"https://gershmanlab.com/experiments/alicia/PRE_exp3/experiment/index.html?PROLIFIC_PID=5e701badffc1a95eacebdf6f&STUDY_ID=6436e7076eedf62b8d53f522&SESSION_ID=6436f5b234e47a55e714b9e2&participant=45"},{"rt":8594,"response":{"less":3,"more":3,"equal":5},"question_order":[0,1,2],"type":"response","story":"weekend","social_interaction":"no_interaction","vignette":"Consider Abby and Evelyn, who have different preferences for the activities they do during weekends. Every weekend, Abby wakes up early to do intense outdoor activities. Evelyn sleeps in, gets brunch, and walks around the city. How likely is it that","answer_labels":{"less":"Evelyn and Abby are in a relationship where Evelyn has less power, status, or influence than Abby.","more":"Evelyn and Abby are in a relationship where Evelyn has more power, status, or influence than Abby.","equal":"Evelyn and Abby are in a relationship where they have equal power, status, or influence."},"trial_type":"survey-likert","trial_index":20,"time_elapsed":146124,"internal_node_id":"0.0-3.0-0.8","subject_id":"5e701badffc1a95eacebdf6f","study_id":"6436e7076eedf62b8d53f522","session_id":"6436f5b234e47a55e714b9e2","condition_number":45,"params":{"completionMinutes":20,"basePay":"5","likertLabels":["Extremely unlikely","Unlikely","Somewhat unlikely","Neither likely nor unlikely","Somewhat likely","Likely","Extremely likely"]},"url":"https://gershmanlab.com/experiments/alicia/PRE_exp3/experiment/index.html?PROLIFIC_PID=5e701badffc1a95eacebdf6f&STUDY_ID=6436e7076eedf62b8d53f522&SESSION_ID=6436f5b234e47a55e714b9e2&participant=45"},{"rt":7118,"response":{"less":3,"more":3,"equal":5},"question_order":[0,1,2],"type":"response","story":"groceries","social_interaction":"reciprocity","vignette":"Consider Dylan and Caleb, who live on the 5th floor of a walkup in Manhattan, with a steep narrow staircase. Each of them comes home from the grocery store about once a week, and take turns helping each other carry the groceries up the stairs. How likely is it that","answer_labels":{"less":"Caleb and Dylan are in a relationship where Caleb has less power, status, or influence than Dylan.","more":"Caleb are in a relationship where Caleb has more power, status, or influence than Dylan.","equal":"Caleb and Dylan are in a relationship where they have equal power, status, or influence."},"trial_type":"survey-likert","trial_index":22,"time_elapsed":155266,"internal_node_id":"0.0-3.0-0.9","subject_id":"5e701badffc1a95eacebdf6f","study_id":"6436e7076eedf62b8d53f522","session_id":"6436f5b234e47a55e714b9e2","condition_number":45,"params":{"completionMinutes":20,"basePay":"5","likertLabels":["Extremely unlikely","Unlikely","Somewhat unlikely","Neither likely nor unlikely","Somewhat likely","Likely","Extremely likely"]},"url":"https://gershmanlab.com/experiments/alicia/PRE_exp3/experiment/index.html?PROLIFIC_PID=5e701badffc1a95eacebdf6f&STUDY_ID=6436e7076eedf62b8d53f522&SESSION_ID=6436f5b234e47a55e714b9e2&participant=45"},{"rt":14726,"response":{"less":3,"more":3,"equal":5},"question_order":[0,1,2],"type":"response","story":"police","social_interaction":"precedent","vignette":"Consider Justin and Jarred, who are police officers on the same beat.  Each day, Justin goes to the office at 6am to do the day's paperwork, so that Jarred can arrive later and go straight to their shared patrol car. How likely is it that","answer_labels":{"less":"Justin and Jarred are in a relationship where Justin has less power, status, or influence than Jarred.","more":"Justin and Jarred are in a relationship where Justin has more power, status, or influence than Jarred.","equal":"Justin and Jarred are in a relationship where they have equal power, status, or influence."},"trial_type":"survey-likert","trial_index":24,"time_elapsed":172013,"internal_node_id":"0.0-3.0-0.10","subject_id":"5e701badffc1a95eacebdf6f","study_id":"6436e7076eedf62b8d53f522","session_id":"6436f5b234e47a55e714b9e2","condition_number":45,"params":{"completionMinutes":20,"basePay":"5","likertLabels":["Extremely unlikely","Unlikely","Somewhat unlikely","Neither likely nor unlikely","Somewhat likely","Likely","Extremely likely"]},"url":"https://gershmanlab.com/experiments/alicia/PRE_exp3/experiment/index.html?PROLIFIC_PID=5e701badffc1a95eacebdf6f&STUDY_ID=6436e7076eedf62b8d53f522&SESSION_ID=6436f5b234e47a55e714b9e2&participant=45"},{"rt":8516,"response":{"less":3,"more":3,"equal":5},"question_order":[0,1,2],"type":"response","story":"scheduling","social_interaction":"reciprocity","vignette":"Consider Matt and William, who want to have a weekly joint meal at an Italian restaurant near their workplace. Matt prefers lunches, because Matt likes to have a free schedule after work. William prefers dinners because William prefers not to break up the work day by traveling somewhere after lunch. They alternate between getting lunch Tuesdays at noon, and getting dinner Wednesdays at 7pm. How likely is it that","answer_labels":{"less":"Matt and William are in a relationship where Matt has less power, status, or influence than William.","more":"Matt and William are in a relationship where Matt has more power, status, or influence than William.","equal":"Matt and William are in a relationship where they have equal power, status, or influence."},"trial_type":"survey-likert","trial_index":26,"time_elapsed":182050,"internal_node_id":"0.0-3.0-0.11","subject_id":"5e701badffc1a95eacebdf6f","study_id":"6436e7076eedf62b8d53f522","session_id":"6436f5b234e47a55e714b9e2","condition_number":45,"params":{"completionMinutes":20,"basePay":"5","likertLabels":["Extremely unlikely","Unlikely","Somewhat unlikely","Neither likely nor unlikely","Somewhat likely","Likely","Extremely likely"]},"url":"https://gershmanlab.com/experiments/alicia/PRE_exp3/experiment/index.html?PROLIFIC_PID=5e701badffc1a95eacebdf6f&STUDY_ID=6436e7076eedf62b8d53f522&SESSION_ID=6436f5b234e47a55e714b9e2&participant=45"},{"rt":10524,"response":{"less":3,"more":3,"equal":5},"question_order":[0,1,2],"type":"response","story":"restaurant","social_interaction":"no_interaction","vignette":"Consider Avery and Grace, who both like to go out to eat every Thursday after work. There are two restaurants near their work: a Chinese restaurant, and an Indian restaurant. Avery prefers the Chinese restaurant, while Grace prefers the Indian restaurant. Avery always goes to the Chinese restaurant. Grace always goes to the Indian restaurant. How likely is it that","answer_labels":{"less":"Grace and Avery are in a relationship where Grace has less power, status, or influence than Avery.","more":"Grace and Avery are in a relationship where Grace has more power, status, or influence than Avery.","equal":"Grace and Avery are in a relationship where they have equal power, status, or influence."},"trial_type":"survey-likert","trial_index":28,"time_elapsed":194593,"internal_node_id":"0.0-3.0-0.12","subject_id":"5e701badffc1a95eacebdf6f","study_id":"6436e7076eedf62b8d53f522","session_id":"6436f5b234e47a55e714b9e2","condition_number":45,"params":{"completionMinutes":20,"basePay":"5","likertLabels":["Extremely unlikely","Unlikely","Somewhat unlikely","Neither likely nor unlikely","Somewhat likely","Likely","Extremely likely"]},"url":"https://gershmanlab.com/experiments/alicia/PRE_exp3/experiment/index.html?PROLIFIC_PID=5e701badffc1a95eacebdf6f&STUDY_ID=6436e7076eedf62b8d53f522&SESSION_ID=6436f5b234e47a55e714b9e2&participant=45"},{"rt":11453,"response":{"less":"","more":3,"equal":5},"question_order":[0,1,2],"type":"response","story":"conversation","social_interaction":"precedent","vignette":"Consider Alice and Angela, who work at the same company. They meet weekly. Every time they meet, Alice spends most of the one-hour meeting talking, while Angela spends most of the one-hour meeting listening and asking questions. How likely is it that","answer_labels":{"less":"Angela and Alice are in a relationship where Angela has less power, status, or influence than Alice.","more":"Angela and Alice are in a relationship where Angela has more power, status, or influence than Alice.","equal":"Angela and Alice are in a relationship where they have equal power, status, or influence."},"trial_type":"survey-likert","trial_index":30,"time_elapsed":208062,"internal_node_id":"0.0-3.0-0.13","subject_id":"5e701badffc1a95eacebdf6f","study_id":"6436e7076eedf62b8d53f522","session_id":"6436f5b234e47a55e714b9e2","condition_number":45,"params":{"completionMinutes":20,"basePay":"5","likertLabels":["Extremely unlikely","Unlikely","Somewhat unlikely","Neither likely nor unlikely","Somewhat likely","Likely","Extremely likely"]},"url":"https://gershmanlab.com/experiments/alicia/PRE_exp3/experiment/index.html?PROLIFIC_PID=5e701badffc1a95eacebdf6f&STUDY_ID=6436e7076eedf62b8d53f522&SESSION_ID=6436f5b234e47a55e714b9e2&participant=45"},{"rt":6742,"response":{"less":3,"more":3,"equal":5},"question_order":[0,1,2],"type":"response","story":"feedback","social_interaction":"reciprocity","vignette":"Consider Taylor and Samantha, who are both fiction writers living in the same city. They frequently attend the same group writing workshops. Taylor and Samantha alternate giving each other feedback on their work. How likely is it that","answer_labels":{"less":"Taylor and Samantha are in a relationship where Taylor has less power, status, or influence than Samantha.","more":"Taylor and Samantha are in a relationship where Taylor has more power, status, or influence than Samantha.","equal":"Taylor and Samantha are in a relationship where they have equal power, status, or influence."},"trial_type":"survey-likert","trial_index":32,"time_elapsed":216323,"internal_node_id":"0.0-3.0-0.14","subject_id":"5e701badffc1a95eacebdf6f","study_id":"6436e7076eedf62b8d53f522","session_id":"6436f5b234e47a55e714b9e2","condition_number":45,"params":{"completionMinutes":20,"basePay":"5","likertLabels":["Extremely unlikely","Unlikely","Somewhat unlikely","Neither likely nor unlikely","Somewhat likely","Likely","Extremely likely"]},"url":"https://gershmanlab.com/experiments/alicia/PRE_exp3/experiment/index.html?PROLIFIC_PID=5e701badffc1a95eacebdf6f&STUDY_ID=6436e7076eedf62b8d53f522&SESSION_ID=6436f5b234e47a55e714b9e2&participant=45"},{"rt":6322,"response":{"less":3,"more":3,"equal":5},"question_order":[0,1,2],"type":"response","story":"meeting prep","social_interaction":"reciprocity","vignette":"Consider Chloe and Victoria, who work at the same news station. They meet once a week. Chloe and Victoria alternate preparing the agenda for each meeting and booking the meeting room. How likely is it that","answer_labels":{"less":"Chloe and Victoria are in a relationship where Chloe has less power, status, or influence than Victoria.","more":"Chloe and Victoria are in a relationship where Chloe has more power, status, or influence than Victoria.","equal":"Chloe and Victoria are in a relationship where they have equal power, status, or influence."},"trial_type":"survey-likert","trial_index":34,"time_elapsed":224967,"internal_node_id":"0.0-3.0-0.15","subject_id":"5e701badffc1a95eacebdf6f","study_id":"6436e7076eedf62b8d53f522","session_id":"6436f5b234e47a55e714b9e2","condition_number":45,"params":{"completionMinutes":20,"basePay":"5","likertLabels":["Extremely unlikely","Unlikely","Somewhat unlikely","Neither likely nor unlikely","Somewhat likely","Likely","Extremely likely"]},"url":"https://gershmanlab.com/experiments/alicia/PRE_exp3/experiment/index.html?PROLIFIC_PID=5e701badffc1a95eacebdf6f&STUDY_ID=6436e7076eedf62b8d53f522&SESSION_ID=6436f5b234e47a55e714b9e2&participant=45"},{"rt":3630,"response":{"less":3,"more":3,"equal":5},"question_order":[0,1,2],"type":"response","story":"meeting location","social_interaction":"reciprocity","vignette":"Consider Ethan and Benjamin, who work at the same Boston-area nonprofit. They meet once a week. Every week, they alternate meeting in Ethan's office and in Benjamin's office. How likely is it that","answer_labels":{"less":"Ethan and Benjamin are in a relationship where Ethan has less power, status, or influence than Benjamin.","more":"Ethan and Benjamin are in a relationship where Ethan has more power, status, or influence than Benjamin.","equal":"Ethan and Benjamin are in a relationship where they have equal power, status, or influence."},"trial_type":"survey-likert","trial_index":36,"time_elapsed":230614,"internal_node_id":"0.0-3.0-0.16","subject_id":"5e701badffc1a95eacebdf6f","study_id":"6436e7076eedf62b8d53f522","session_id":"6436f5b234e47a55e714b9e2","condition_number":45,"params":{"completionMinutes":20,"basePay":"5","likertLabels":["Extremely unlikely","Unlikely","Somewhat unlikely","Neither likely nor unlikely","Somewhat likely","Likely","Extremely likely"]},"url":"https://gershmanlab.com/experiments/alicia/PRE_exp3/experiment/index.html?PROLIFIC_PID=5e701badffc1a95eacebdf6f&STUDY_ID=6436e7076eedf62b8d53f522&SESSION_ID=6436f5b234e47a55e714b9e2&participant=45"},{"rt":3863,"response":{"less":3,"more":3,"equal":5},"question_order":[0,1,2],"type":"response","story":"group project","social_interaction":"reciprocity","vignette":"Consider Maxwell and Ralph, two people at the same company who are assigned to work together on the same project. Each time they meet, they take turns delegating tasks, contributing ideas, and proposing what to do next. How likely is it that","answer_labels":{"less":"Maxwell and Ralph are in a relationship where Maxwell has less power, status, or influence than Ralph.","more":"Maxwell and Ralph are in a relationship where Maxwell has more power, status, or influence than Ralph.","equal":"Maxwell and Ralph are in a relationship where they have equal power, status, or influence."},"trial_type":"survey-likert","trial_index":38,"time_elapsed":236499,"internal_node_id":"0.0-3.0-0.17","subject_id":"5e701badffc1a95eacebdf6f","study_id":"6436e7076eedf62b8d53f522","session_id":"6436f5b234e47a55e714b9e2","condition_number":45,"params":{"completionMinutes":20,"basePay":"5","likertLabels":["Extremely unlikely","Unlikely","Somewhat unlikely","Neither likely nor unlikely","Somewhat likely","Likely","Extremely likely"]},"url":"https://gershmanlab.com/experiments/alicia/PRE_exp3/experiment/index.html?PROLIFIC_PID=5e701badffc1a95eacebdf6f&STUDY_ID=6436e7076eedf62b8d53f522&SESSION_ID=6436f5b234e47a55e714b9e2&participant=45"},{"rt":6668,"response":{"less":6,"more":0,"equal":6},"question_order":[0,1,2],"type":"response","story":"","social_interaction":"attention","vignette":"Thank you for contributing to this study! This page is an attention check so we can make sure you're not a bot and can award you your pay when you complete the study.","answer_labels":{"less":"Please select \"extremely likely\" for this question.","more":"Please select \"extremely unlikely\" for this question.","equal":"Please select \"extremely likely\" for this question."},"trial_type":"survey-likert","trial_index":40,"time_elapsed":245487,"internal_node_id":"0.0-4.0","subject_id":"5e701badffc1a95eacebdf6f","study_id":"6436e7076eedf62b8d53f522","session_id":"6436f5b234e47a55e714b9e2","condition_number":45,"params":{"completionMinutes":20,"basePay":"5","likertLabels":["Extremely unlikely","Unlikely","Somewhat unlikely","Neither likely nor unlikely","Somewhat likely","Likely","Extremely likely"]},"url":"https://gershmanlab.com/experiments/alicia/PRE_exp3/experiment/index.html?PROLIFIC_PID=5e701badffc1a95eacebdf6f&STUDY_ID=6436e7076eedf62b8d53f522&SESSION_ID=6436f5b234e47a55e714b9e2&participant=45","passAttentionCheck":true},{"rt":6433,"response":{"gender":"male","age":"21","understood":"yes","comments":"            "},"type":"response","trial_type":"survey-html-form","trial_index":41,"time_elapsed":251922,"internal_node_id":"0.0-5.0","subject_id":"5e701badffc1a95eacebdf6f","study_id":"6436e7076eedf62b8d53f522","session_id":"6436f5b234e47a55e714b9e2","condition_number":45,"params":{"completionMinutes":20,"basePay":"5","likertLabels":["Extremely unlikely","Unlikely","Somewhat unlikely","Neither likely nor unlikely","Somewhat likely","Likely","Extremely likely"]},"url":"https://gershmanlab.com/experiments/alicia/PRE_exp3/experiment/index.html?PROLIFIC_PID=5e701badffc1a95eacebdf6f&STUDY_ID=6436e7076eedf62b8d53f522&SESSION_ID=6436f5b234e47a55e714b9e2&participant=45"}]