[{"rt":32694,"response":{"less":3,"more":3,"equal":6},"question_order":[0,1,2],"type":"response","story":"groceries","social_interaction":"no_interaction","vignette":"Consider Dylan and Caleb, who live on the 5th floor of a walkup in Manhattan, with a steep narrow staircase. Dylan carries his own groceries up the stairs. Caleb carries his own groceries up the stairs. How likely is it that","answer_labels":{"less":"Caleb and Dylan are in a relationship where Caleb has less power, status, or influence than Dylan.","more":"Caleb are in a relationship where Caleb has more power, status, or influence than Dylan.","equal":"Caleb and Dylan are in a relationship where they have equal power, status, or influence."},"trial_type":"survey-likert","trial_index":4,"time_elapsed":68047,"internal_node_id":"0.0-3.0-0.0","subject_id":"6137da4ec348d1070e20fd85","study_id":"6436e7076eedf62b8d53f522","session_id":"6436f59c079391b1956c20ab","condition_number":42,"params":{"completionMinutes":20,"basePay":"5","likertLabels":["Extremely unlikely","Unlikely","Somewhat unlikely","Neither likely nor unlikely","Somewhat likely","Likely","Extremely likely"]},"url":"https://gershmanlab.com/experiments/alicia/PRE_exp3/experiment/index.html?PROLIFIC_PID=6137da4ec348d1070e20fd85&STUDY_ID=6436e7076eedf62b8d53f522&SESSION_ID=6436f59c079391b1956c20ab&participant=42"},{"rt":25466,"response":{"less":3,"more":3,"equal":5},"question_order":[0,1,2],"type":"response","story":"feedback","social_interaction":"no_interaction","vignette":"Consider Taylor and Samantha, who are both fiction writers living in the same city, and frequently attend the same group writing workshops. Taylor generally gives Roberta feedback on her work, while Samantha gives Alexandra feedback on her work. How likely is it that","answer_labels":{"less":"Taylor and Samantha are in a relationship where Taylor has less power, status, or influence than Samantha.","more":"Taylor and Samantha are in a relationship where Taylor has more power, status, or influence than Samantha.","equal":"Taylor and Samantha are in a relationship where they have equal power, status, or influence."},"trial_type":"survey-likert","trial_index":6,"time_elapsed":95534,"internal_node_id":"0.0-3.0-0.1","subject_id":"6137da4ec348d1070e20fd85","study_id":"6436e7076eedf62b8d53f522","session_id":"6436f59c079391b1956c20ab","condition_number":42,"params":{"completionMinutes":20,"basePay":"5","likertLabels":["Extremely unlikely","Unlikely","Somewhat unlikely","Neither likely nor unlikely","Somewhat likely","Likely","Extremely likely"]},"url":"https://gershmanlab.com/experiments/alicia/PRE_exp3/experiment/index.html?PROLIFIC_PID=6137da4ec348d1070e20fd85&STUDY_ID=6436e7076eedf62b8d53f522&SESSION_ID=6436f59c079391b1956c20ab&participant=42"},{"rt":33021,"response":{"less":5,"more":1,"equal":1},"question_order":[0,1,2],"type":"response","story":"gifts","social_interaction":"precedent","vignette":"Consider two families, the Lee family and the Min family. Every year, each member of the Lee family gives the Min family a precious and expensive gift. How likely is it that","answer_labels":{"less":"The Lee family and the Min family are in a relationship where the Lee family has less power, status, or influence than the Min family.","more":"The Lee family and the Min family are in a relationship where the Lee family has more power, status, or influence than the Min family.","equal":"The Lee family and the Min family are in a relationship where they have equal power, status, or influence."},"trial_type":"survey-likert","trial_index":8,"time_elapsed":130071,"internal_node_id":"0.0-3.0-0.2","subject_id":"6137da4ec348d1070e20fd85","study_id":"6436e7076eedf62b8d53f522","session_id":"6436f59c079391b1956c20ab","condition_number":42,"params":{"completionMinutes":20,"basePay":"5","likertLabels":["Extremely unlikely","Unlikely","Somewhat unlikely","Neither likely nor unlikely","Somewhat likely","Likely","Extremely likely"]},"url":"https://gershmanlab.com/experiments/alicia/PRE_exp3/experiment/index.html?PROLIFIC_PID=6137da4ec348d1070e20fd85&STUDY_ID=6436e7076eedf62b8d53f522&SESSION_ID=6436f59c079391b1956c20ab&participant=42"},{"rt":10587,"response":{"less":3,"more":3,"equal":6},"question_order":[0,1,2],"type":"response","story":"concerts","social_interaction":"reciprocity","vignette":"Consider Kevin and Allen, who frequently go to concerts together. Whenever they go to a concert together, Kevin and Allen alternate paying for the tickets. How likely is it that","answer_labels":{"less":"Kevin and Allen are in a relationship where Kevin has less power, status, or influence than Allen.","more":"Kevin and Allen are in a relationship where Kevin has more power, status, or influence than Allen.","equal":"Kevin and Allen are in a relationship where they have equal power, status, or influence."},"trial_type":"survey-likert","trial_index":10,"time_elapsed":142987,"internal_node_id":"0.0-3.0-0.3","subject_id":"6137da4ec348d1070e20fd85","study_id":"6436e7076eedf62b8d53f522","session_id":"6436f59c079391b1956c20ab","condition_number":42,"params":{"completionMinutes":20,"basePay":"5","likertLabels":["Extremely unlikely","Unlikely","Somewhat unlikely","Neither likely nor unlikely","Somewhat likely","Likely","Extremely likely"]},"url":"https://gershmanlab.com/experiments/alicia/PRE_exp3/experiment/index.html?PROLIFIC_PID=6137da4ec348d1070e20fd85&STUDY_ID=6436e7076eedf62b8d53f522&SESSION_ID=6436f59c079391b1956c20ab&participant=42"},{"rt":24083,"response":{"less":0,"more":6,"equal":3},"question_order":[0,1,2],"type":"response","story":"coffee","social_interaction":"precedent","vignette":"Consider Andrew and Bob, who work in the same field. They meet once a week for coffee. Every week, Bob buys and brings coffee to the meeting for both of them. How likely is it that","answer_labels":{"less":"Bob and Andrew are in a relationship where Bob has less power, status, or influence than Andrew.","more":"Bob and Andrew are in a relationship where Bob has more power, status, influence than Andrew.","equal":"Bob and Andrew are in a relationship where they have equal power, status, or influence."},"trial_type":"survey-likert","trial_index":12,"time_elapsed":168845,"internal_node_id":"0.0-3.0-0.4","subject_id":"6137da4ec348d1070e20fd85","study_id":"6436e7076eedf62b8d53f522","session_id":"6436f59c079391b1956c20ab","condition_number":42,"params":{"completionMinutes":20,"basePay":"5","likertLabels":["Extremely unlikely","Unlikely","Somewhat unlikely","Neither likely nor unlikely","Somewhat likely","Likely","Extremely likely"]},"url":"https://gershmanlab.com/experiments/alicia/PRE_exp3/experiment/index.html?PROLIFIC_PID=6137da4ec348d1070e20fd85&STUDY_ID=6436e7076eedf62b8d53f522&SESSION_ID=6436f59c079391b1956c20ab&participant=42"},{"rt":58418,"response":{"less":2,"more":4,"equal":3},"question_order":[0,1,2],"type":"response","story":"babysitting","social_interaction":"no_interaction","vignette":"Consider Ryan and John, who both have two children under 10 years old. Every week, Ryan volunteers to watch his children, so his partner Elliot can have some focused time to work. John volunteers to watch his children, so his partner Cody can have some focused time to work.","answer_labels":{"less":"John and Ryan are in a relationship where John has less power, status, or influence than Ryan.","more":"John and Ryan are in a relationship where John has more power, status, or influence than Ryan.","equal":"John and Ryan are in a relationship where they have equal power, status, or influence."},"trial_type":"survey-likert","trial_index":14,"time_elapsed":229035,"internal_node_id":"0.0-3.0-0.5","subject_id":"6137da4ec348d1070e20fd85","study_id":"6436e7076eedf62b8d53f522","session_id":"6436f59c079391b1956c20ab","condition_number":42,"params":{"completionMinutes":20,"basePay":"5","likertLabels":["Extremely unlikely","Unlikely","Somewhat unlikely","Neither likely nor unlikely","Somewhat likely","Likely","Extremely likely"]},"url":"https://gershmanlab.com/experiments/alicia/PRE_exp3/experiment/index.html?PROLIFIC_PID=6137da4ec348d1070e20fd85&STUDY_ID=6436e7076eedf62b8d53f522&SESSION_ID=6436f59c079391b1956c20ab&participant=42"},{"rt":6514,"response":{"less":3,"more":3,"equal":6},"question_order":[0,1,2],"type":"response","story":"meeting prep","social_interaction":"reciprocity","vignette":"Consider Chloe and Victoria, who work at the same news station. They meet once a week. Chloe and Victoria alternate preparing the agenda for each meeting and booking the meeting room. How likely is it that","answer_labels":{"less":"Chloe and Victoria are in a relationship where Chloe has less power, status, or influence than Victoria.","more":"Chloe and Victoria are in a relationship where Chloe has more power, status, or influence than Victoria.","equal":"Chloe and Victoria are in a relationship where they have equal power, status, or influence."},"trial_type":"survey-likert","trial_index":16,"time_elapsed":237076,"internal_node_id":"0.0-3.0-0.6","subject_id":"6137da4ec348d1070e20fd85","study_id":"6436e7076eedf62b8d53f522","session_id":"6436f59c079391b1956c20ab","condition_number":42,"params":{"completionMinutes":20,"basePay":"5","likertLabels":["Extremely unlikely","Unlikely","Somewhat unlikely","Neither likely nor unlikely","Somewhat likely","Likely","Extremely likely"]},"url":"https://gershmanlab.com/experiments/alicia/PRE_exp3/experiment/index.html?PROLIFIC_PID=6137da4ec348d1070e20fd85&STUDY_ID=6436e7076eedf62b8d53f522&SESSION_ID=6436f59c079391b1956c20ab&participant=42"},{"rt":18858,"response":{"less":1,"more":5,"equal":3},"question_order":[0,1,2],"type":"response","story":"housemates","social_interaction":"precedent","vignette":"Consider Sarah and Anne, who both live in the same old building. Any time Sarah notices something damaged or missing or needed for the house, like pipes or wires or detergent or batteries, she writes it on a list. Each week, Anne completes all of the tasks on the list. How likely is it that","answer_labels":{"less":"Anne and Sarah are in a relationship where Anne has less power, status, or influence than Sarah.","more":"Anne and Sarah are in a relationship where Anne has more power, status, or influence than Sarah.","equal":"Anne and Sarah are in a relationship where they have equal power, status, or influence."},"trial_type":"survey-likert","trial_index":18,"time_elapsed":258259,"internal_node_id":"0.0-3.0-0.7","subject_id":"6137da4ec348d1070e20fd85","study_id":"6436e7076eedf62b8d53f522","session_id":"6436f59c079391b1956c20ab","condition_number":42,"params":{"completionMinutes":20,"basePay":"5","likertLabels":["Extremely unlikely","Unlikely","Somewhat unlikely","Neither likely nor unlikely","Somewhat likely","Likely","Extremely likely"]},"url":"https://gershmanlab.com/experiments/alicia/PRE_exp3/experiment/index.html?PROLIFIC_PID=6137da4ec348d1070e20fd85&STUDY_ID=6436e7076eedf62b8d53f522&SESSION_ID=6436f59c079391b1956c20ab&participant=42"},{"rt":12428,"response":{"less":3,"more":3,"equal":6},"question_order":[0,1,2],"type":"response","story":"scheduling","social_interaction":"no_interaction","vignette":"Consider Matt and William, who both like going to an Italian restaurant near their workplace. Matt gets lunch there Tuesdays at noon, and William gets dinner there Wednesdays at 7pm. How likely is it that","answer_labels":{"less":"Matt and William are in a relationship where Matt has less power, status, or influence than William.","more":"Matt and William are in a relationship where Matt has more power, status, or influence than William.","equal":"Matt and William are in a relationship where they have equal power, status, or influence."},"trial_type":"survey-likert","trial_index":20,"time_elapsed":272462,"internal_node_id":"0.0-3.0-0.8","subject_id":"6137da4ec348d1070e20fd85","study_id":"6436e7076eedf62b8d53f522","session_id":"6436f59c079391b1956c20ab","condition_number":42,"params":{"completionMinutes":20,"basePay":"5","likertLabels":["Extremely unlikely","Unlikely","Somewhat unlikely","Neither likely nor unlikely","Somewhat likely","Likely","Extremely likely"]},"url":"https://gershmanlab.com/experiments/alicia/PRE_exp3/experiment/index.html?PROLIFIC_PID=6137da4ec348d1070e20fd85&STUDY_ID=6436e7076eedf62b8d53f522&SESSION_ID=6436f59c079391b1956c20ab&participant=42"},{"rt":11506,"response":{"less":3,"more":3,"equal":6},"question_order":[0,1,2],"type":"response","story":"meeting location","social_interaction":"reciprocity","vignette":"Consider Ethan and Benjamin, who work at the same Boston-area nonprofit. They meet once a week. Every week, they alternate meeting in Ethan's office and in Benjamin's office. How likely is it that","answer_labels":{"less":"Ethan and Benjamin are in a relationship where Ethan has less power, status, or influence than Benjamin.","more":"Ethan and Benjamin are in a relationship where Ethan has more power, status, or influence than Benjamin.","equal":"Ethan and Benjamin are in a relationship where they have equal power, status, or influence."},"trial_type":"survey-likert","trial_index":22,"time_elapsed":285997,"internal_node_id":"0.0-3.0-0.9","subject_id":"6137da4ec348d1070e20fd85","study_id":"6436e7076eedf62b8d53f522","session_id":"6436f59c079391b1956c20ab","condition_number":42,"params":{"completionMinutes":20,"basePay":"5","likertLabels":["Extremely unlikely","Unlikely","Somewhat unlikely","Neither likely nor unlikely","Somewhat likely","Likely","Extremely likely"]},"url":"https://gershmanlab.com/experiments/alicia/PRE_exp3/experiment/index.html?PROLIFIC_PID=6137da4ec348d1070e20fd85&STUDY_ID=6436e7076eedf62b8d53f522&SESSION_ID=6436f59c079391b1956c20ab&participant=42"},{"rt":26390,"response":{"less":1,"more":5,"equal":0},"question_order":[0,1,2],"type":"response","story":"restaurant","social_interaction":"no_interaction","vignette":"Consider Avery and Grace, who both like to go out to eat every Thursday after work. There are two restaurants near their work: a Chinese restaurant, and an Indian restaurant. Avery prefers the Chinese restaurant, while Grace prefers the Indian restaurant. Avery always goes to the Chinese restaurant. Grace always goes to the Indian restaurant. How likely is it that","answer_labels":{"less":"Grace and Avery are in a relationship where Grace has less power, status, or influence than Avery.","more":"Grace and Avery are in a relationship where Grace has more power, status, or influence than Avery.","equal":"Grace and Avery are in a relationship where they have equal power, status, or influence."},"trial_type":"survey-likert","trial_index":24,"time_elapsed":314404,"internal_node_id":"0.0-3.0-0.10","subject_id":"6137da4ec348d1070e20fd85","study_id":"6436e7076eedf62b8d53f522","session_id":"6436f59c079391b1956c20ab","condition_number":42,"params":{"completionMinutes":20,"basePay":"5","likertLabels":["Extremely unlikely","Unlikely","Somewhat unlikely","Neither likely nor unlikely","Somewhat likely","Likely","Extremely likely"]},"url":"https://gershmanlab.com/experiments/alicia/PRE_exp3/experiment/index.html?PROLIFIC_PID=6137da4ec348d1070e20fd85&STUDY_ID=6436e7076eedf62b8d53f522&SESSION_ID=6436f59c079391b1956c20ab&participant=42"},{"rt":21474,"response":{"less":0,"more":6,"equal":1},"question_order":[0,1,2],"type":"response","story":"fundraising","social_interaction":"precedent","vignette":"Consider Caroline and Bella, who both frequently run for charity, as a team. They have to raise money for their charity to enter the race. Each time they enter a race, Caroline takes the lead on the advertising and fundraising, contacting and following up with her friends to ask them if they would like to donate to their charity. How likely is it that","answer_labels":{"less":"Caroline and Bella are in a relationship where Caroline has less power, status, or influence than Bella.","more":"Caroline and Bella are in a relationship where Caroline has more power, status, or influence than Bella.","equal":"Caroline and Bella are in a relationship where they have equal power, status, or influence."},"trial_type":"survey-likert","trial_index":26,"time_elapsed":337659,"internal_node_id":"0.0-3.0-0.11","subject_id":"6137da4ec348d1070e20fd85","study_id":"6436e7076eedf62b8d53f522","session_id":"6436f59c079391b1956c20ab","condition_number":42,"params":{"completionMinutes":20,"basePay":"5","likertLabels":["Extremely unlikely","Unlikely","Somewhat unlikely","Neither likely nor unlikely","Somewhat likely","Likely","Extremely likely"]},"url":"https://gershmanlab.com/experiments/alicia/PRE_exp3/experiment/index.html?PROLIFIC_PID=6137da4ec348d1070e20fd85&STUDY_ID=6436e7076eedf62b8d53f522&SESSION_ID=6436f59c079391b1956c20ab&participant=42"},{"rt":6246,"response":{"less":3,"more":3,"equal":6},"question_order":[0,1,2],"type":"response","story":"group project","social_interaction":"reciprocity","vignette":"Consider Maxwell and Ralph, two people at the same company who are assigned to work together on the same project. Each time they meet, they take turns delegating tasks, contributing ideas, and proposing what to do next. How likely is it that","answer_labels":{"less":"Maxwell and Ralph are in a relationship where Maxwell has less power, status, or influence than Ralph.","more":"Maxwell and Ralph are in a relationship where Maxwell has more power, status, or influence than Ralph.","equal":"Maxwell and Ralph are in a relationship where they have equal power, status, or influence."},"trial_type":"survey-likert","trial_index":28,"time_elapsed":345930,"internal_node_id":"0.0-3.0-0.12","subject_id":"6137da4ec348d1070e20fd85","study_id":"6436e7076eedf62b8d53f522","session_id":"6436f59c079391b1956c20ab","condition_number":42,"params":{"completionMinutes":20,"basePay":"5","likertLabels":["Extremely unlikely","Unlikely","Somewhat unlikely","Neither likely nor unlikely","Somewhat likely","Likely","Extremely likely"]},"url":"https://gershmanlab.com/experiments/alicia/PRE_exp3/experiment/index.html?PROLIFIC_PID=6137da4ec348d1070e20fd85&STUDY_ID=6436e7076eedf62b8d53f522&SESSION_ID=6436f59c079391b1956c20ab&participant=42"},{"rt":6155,"response":{"less":3,"more":3,"equal":6},"question_order":[0,1,2],"type":"response","story":"architects","social_interaction":"no_interaction","vignette":"Consider Sonia and Liana, who work as architects at the same company, but on different teams. Each of them has a system of meticulously double-checking their own designs before they send them out. How likely is it that","answer_labels":{"less":"Sonia and Liana are in a relationship where Sonia has less power, status, or influence than Liana.","more":"Sonia and Liana are in a relationship where Sonia has more power, status, or influence than Liana.","equal":"Sonia and Liana are in a relationship where they have equal power, status, or influence."},"trial_type":"survey-likert","trial_index":30,"time_elapsed":353615,"internal_node_id":"0.0-3.0-0.13","subject_id":"6137da4ec348d1070e20fd85","study_id":"6436e7076eedf62b8d53f522","session_id":"6436f59c079391b1956c20ab","condition_number":42,"params":{"completionMinutes":20,"basePay":"5","likertLabels":["Extremely unlikely","Unlikely","Somewhat unlikely","Neither likely nor unlikely","Somewhat likely","Likely","Extremely likely"]},"url":"https://gershmanlab.com/experiments/alicia/PRE_exp3/experiment/index.html?PROLIFIC_PID=6137da4ec348d1070e20fd85&STUDY_ID=6436e7076eedf62b8d53f522&SESSION_ID=6436f59c079391b1956c20ab&participant=42"},{"rt":27408,"response":{"less":3,"more":3,"equal":6},"question_order":[0,1,2],"type":"response","story":"police","social_interaction":"reciprocity","vignette":"Consider Justin and Jarred, who are police officers on the same beat.  Justin and Jarred take turns going to the office at 6am to do the day's paperwork, so that the other one can arrive later and go straight to their shared patrol car. How likely is it that","answer_labels":{"less":"Justin and Jarred are in a relationship where Justin has less power, status, or influence than Jarred.","more":"Justin and Jarred are in a relationship where Justin has more power, status, or influence than Jarred.","equal":"Justin and Jarred are in a relationship where they have equal power, status, or influence."},"trial_type":"survey-likert","trial_index":32,"time_elapsed":383346,"internal_node_id":"0.0-3.0-0.14","subject_id":"6137da4ec348d1070e20fd85","study_id":"6436e7076eedf62b8d53f522","session_id":"6436f59c079391b1956c20ab","condition_number":42,"params":{"completionMinutes":20,"basePay":"5","likertLabels":["Extremely unlikely","Unlikely","Somewhat unlikely","Neither likely nor unlikely","Somewhat likely","Likely","Extremely likely"]},"url":"https://gershmanlab.com/experiments/alicia/PRE_exp3/experiment/index.html?PROLIFIC_PID=6137da4ec348d1070e20fd85&STUDY_ID=6436e7076eedf62b8d53f522&SESSION_ID=6436f59c079391b1956c20ab&participant=42"},{"rt":5239,"response":{"less":3,"more":3,"equal":6},"question_order":[0,1,2],"type":"response","story":"conversation","social_interaction":"reciprocity","vignette":"Consider Alice and Angela, who work at the same company. They meet weekly. Alice and Angela alternate spending most of the one-hour meeting talking, and listening and asking questions.","answer_labels":{"less":"Angela and Alice are in a relationship where Angela has less power, status, or influence than Alice.","more":"Angela and Alice are in a relationship where Angela has more power, status, or influence than Alice.","equal":"Angela and Alice are in a relationship where they have equal power, status, or influence."},"trial_type":"survey-likert","trial_index":34,"time_elapsed":390606,"internal_node_id":"0.0-3.0-0.15","subject_id":"6137da4ec348d1070e20fd85","study_id":"6436e7076eedf62b8d53f522","session_id":"6436f59c079391b1956c20ab","condition_number":42,"params":{"completionMinutes":20,"basePay":"5","likertLabels":["Extremely unlikely","Unlikely","Somewhat unlikely","Neither likely nor unlikely","Somewhat likely","Likely","Extremely likely"]},"url":"https://gershmanlab.com/experiments/alicia/PRE_exp3/experiment/index.html?PROLIFIC_PID=6137da4ec348d1070e20fd85&STUDY_ID=6436e7076eedf62b8d53f522&SESSION_ID=6436f59c079391b1956c20ab&participant=42"},{"rt":23049,"response":{"less":0,"more":6,"equal":0},"question_order":[0,1,2],"type":"response","story":"weekend","social_interaction":"precedent","vignette":"Consider Abby and Evelyn, who want to spend time together during weekends. Abby prefers waking up early to do intense outdoor activities, while Evelyn prefers sleeping in, getting brunch, and walking around the city. Every weekend, Abby and Evelyn wake up early both days to do intense outdoor activities. How likely is it that","answer_labels":{"less":"Evelyn and Abby are in a relationship where Evelyn has less power, status, or influence than Abby.","more":"Evelyn and Abby are in a relationship where Evelyn has more power, status, or influence than Abby.","equal":"Evelyn and Abby are in a relationship where they have equal power, status, or influence."},"trial_type":"survey-likert","trial_index":36,"time_elapsed":415180,"internal_node_id":"0.0-3.0-0.16","subject_id":"6137da4ec348d1070e20fd85","study_id":"6436e7076eedf62b8d53f522","session_id":"6436f59c079391b1956c20ab","condition_number":42,"params":{"completionMinutes":20,"basePay":"5","likertLabels":["Extremely unlikely","Unlikely","Somewhat unlikely","Neither likely nor unlikely","Somewhat likely","Likely","Extremely likely"]},"url":"https://gershmanlab.com/experiments/alicia/PRE_exp3/experiment/index.html?PROLIFIC_PID=6137da4ec348d1070e20fd85&STUDY_ID=6436e7076eedf62b8d53f522&SESSION_ID=6436f59c079391b1956c20ab&participant=42"},{"rt":29282,"response":{"less":0,"more":6,"equal":0},"question_order":[0,1,2],"type":"response","story":"family meals","social_interaction":"precedent","vignette":"Consider Sue and Martha, who are part of the same family. Four times a year, the whole family gets together for key religious holidays. Every time, the family gathers at Sue’s house. Sue cooks all the food, serves it, and then cleans up after dinner. Martha is very appreciative, and gives Sue a big hug and a warm thank you. How likely is it that","answer_labels":{"less":"Sue and Martha are in a relationship where Sue has less power, status, or influence than Martha.","more":"Sue and Martha are in a relationship where Sue has more power, status, or influence than Martha.","equal":"Sue and Martha are in a relationship where they have equal power, status, or influence."},"trial_type":"survey-likert","trial_index":38,"time_elapsed":446486,"internal_node_id":"0.0-3.0-0.17","subject_id":"6137da4ec348d1070e20fd85","study_id":"6436e7076eedf62b8d53f522","session_id":"6436f59c079391b1956c20ab","condition_number":42,"params":{"completionMinutes":20,"basePay":"5","likertLabels":["Extremely unlikely","Unlikely","Somewhat unlikely","Neither likely nor unlikely","Somewhat likely","Likely","Extremely likely"]},"url":"https://gershmanlab.com/experiments/alicia/PRE_exp3/experiment/index.html?PROLIFIC_PID=6137da4ec348d1070e20fd85&STUDY_ID=6436e7076eedf62b8d53f522&SESSION_ID=6436f59c079391b1956c20ab&participant=42"},{"rt":19265,"response":{"less":6,"more":0,"equal":6},"question_order":[0,1,2],"type":"response","story":"","social_interaction":"attention","vignette":"Thank you for contributing to this study! This page is an attention check so we can make sure you're not a bot and can award you your pay when you complete the study.","answer_labels":{"less":"Please select \"extremely likely\" for this question.","more":"Please select \"extremely unlikely\" for this question.","equal":"Please select \"extremely likely\" for this question."},"trial_type":"survey-likert","trial_index":40,"time_elapsed":467524,"internal_node_id":"0.0-4.0","subject_id":"6137da4ec348d1070e20fd85","study_id":"6436e7076eedf62b8d53f522","session_id":"6436f59c079391b1956c20ab","condition_number":42,"params":{"completionMinutes":20,"basePay":"5","likertLabels":["Extremely unlikely","Unlikely","Somewhat unlikely","Neither likely nor unlikely","Somewhat likely","Likely","Extremely likely"]},"url":"https://gershmanlab.com/experiments/alicia/PRE_exp3/experiment/index.html?PROLIFIC_PID=6137da4ec348d1070e20fd85&STUDY_ID=6436e7076eedf62b8d53f522&SESSION_ID=6436f59c079391b1956c20ab&participant=42","passAttentionCheck":true},{"rt":7199,"response":{"gender":"male","age":"31","understood":"yes","comments":"            "},"type":"response","trial_type":"survey-html-form","trial_index":41,"time_elapsed":474726,"internal_node_id":"0.0-5.0","subject_id":"6137da4ec348d1070e20fd85","study_id":"6436e7076eedf62b8d53f522","session_id":"6436f59c079391b1956c20ab","condition_number":42,"params":{"completionMinutes":20,"basePay":"5","likertLabels":["Extremely unlikely","Unlikely","Somewhat unlikely","Neither likely nor unlikely","Somewhat likely","Likely","Extremely likely"]},"url":"https://gershmanlab.com/experiments/alicia/PRE_exp3/experiment/index.html?PROLIFIC_PID=6137da4ec348d1070e20fd85&STUDY_ID=6436e7076eedf62b8d53f522&SESSION_ID=6436f59c079391b1956c20ab&participant=42"}]