[{"rt":242434,"response":{"less":1,"more":1,"equal":5},"question_order":[0,1,2],"type":"response","story":"babysitting","social_interaction":"precedent","vignette":"Consider Ryan and John, who both have two children under 10 years old. Every week, Ryan drops their children off John's house, where John volunteers to watch Ryan's children so Ryan can have a date night. How likely is it that","answer_labels":{"less":"John and Ryan are in a relationship where John has less power, status, or influence than Ryan.","more":"John and Ryan are in a relationship where John has more power, status, or influence than Ryan.","equal":"John and Ryan are in a relationship where they have equal power, status, or influence."},"trial_type":"survey-likert","trial_index":4,"time_elapsed":383810,"internal_node_id":"0.0-3.0-0.0","subject_id":"63972c71f83340241c366b6a","study_id":"6436e7076eedf62b8d53f522","session_id":"6436f4c8df214015bac33584","condition_number":34,"params":{"completionMinutes":20,"basePay":"5","likertLabels":["Extremely unlikely","Unlikely","Somewhat unlikely","Neither likely nor unlikely","Somewhat likely","Likely","Extremely likely"]},"url":"https://gershmanlab.com/experiments/alicia/PRE_exp3/experiment/index.html?PROLIFIC_PID=63972c71f83340241c366b6a&STUDY_ID=6436e7076eedf62b8d53f522&SESSION_ID=6436f4c8df214015bac33584&participant=34"},{"rt":21502,"response":{"less":1,"more":1,"equal":5},"question_order":[0,1,2],"type":"response","story":"fundraising","social_interaction":"no_interaction","vignette":"Consider Caroline and Bella, who both frequently run for charity. Each of them has to raise money for their charity to enter the race. Whenever Caroline enters a charity race, she asks her friends to donate money to her charity. Whenever Bella enters a charity race, she asks her friends to donate to her charity. How likely is it that","answer_labels":{"less":"Caroline and Bella are in a relationship where Caroline has less power, status, or influence than Bella.","more":"Caroline and Bella are in a relationship where Caroline has more power, status, or influence than Bella.","equal":"Caroline and Bella have equal power, status, or influence."},"trial_type":"survey-likert","trial_index":6,"time_elapsed":406827,"internal_node_id":"0.0-3.0-0.1","subject_id":"63972c71f83340241c366b6a","study_id":"6436e7076eedf62b8d53f522","session_id":"6436f4c8df214015bac33584","condition_number":34,"params":{"completionMinutes":20,"basePay":"5","likertLabels":["Extremely unlikely","Unlikely","Somewhat unlikely","Neither likely nor unlikely","Somewhat likely","Likely","Extremely likely"]},"url":"https://gershmanlab.com/experiments/alicia/PRE_exp3/experiment/index.html?PROLIFIC_PID=63972c71f83340241c366b6a&STUDY_ID=6436e7076eedf62b8d53f522&SESSION_ID=6436f4c8df214015bac33584&participant=34"},{"rt":16478,"response":{"less":1,"more":1,"equal":5},"question_order":[0,1,2],"type":"response","story":"architects","social_interaction":"reciprocity","vignette":"Consider Sonia and Liana, who work as architects at the same company. They work on the same team, where they work together on their designs. Sonia and Liana alternate meticulously double-checking their finished designs before they send them out. How likely is it that","answer_labels":{"less":"Sonia and Liana are in a relationship where Sonia has less power, status, or influence than Liana.","more":"Sonia and Liana are in a relationship where Sonia has more power, status, or influence than Liana.","equal":"Sonia and Liana are in a relationship where they have equal power, status, or influence."},"trial_type":"survey-likert","trial_index":8,"time_elapsed":425062,"internal_node_id":"0.0-3.0-0.2","subject_id":"63972c71f83340241c366b6a","study_id":"6436e7076eedf62b8d53f522","session_id":"6436f4c8df214015bac33584","condition_number":34,"params":{"completionMinutes":20,"basePay":"5","likertLabels":["Extremely unlikely","Unlikely","Somewhat unlikely","Neither likely nor unlikely","Somewhat likely","Likely","Extremely likely"]},"url":"https://gershmanlab.com/experiments/alicia/PRE_exp3/experiment/index.html?PROLIFIC_PID=63972c71f83340241c366b6a&STUDY_ID=6436e7076eedf62b8d53f522&SESSION_ID=6436f4c8df214015bac33584&participant=34"},{"rt":16754,"response":{"less":1,"more":1,"equal":5},"question_order":[0,1,2],"type":"response","story":"feedback","social_interaction":"precedent","vignette":"Consider Taylor and Samantha, who are both fiction writers living in the same city. They frequently attend the same group writing workshops. Samantha often shares work in progress, and Taylor gives her feedback on it.","answer_labels":{"less":"Taylor and Samantha are in a relationship where Taylor has less power, status, or influence than Samantha.","more":"Taylor and Samantha are in a relationship where Taylor has more power, status, or influence than Samantha.","equal":"Taylor and Samantha are in a relationship where they have equal power, status, or influence."},"trial_type":"survey-likert","trial_index":10,"time_elapsed":443326,"internal_node_id":"0.0-3.0-0.3","subject_id":"63972c71f83340241c366b6a","study_id":"6436e7076eedf62b8d53f522","session_id":"6436f4c8df214015bac33584","condition_number":34,"params":{"completionMinutes":20,"basePay":"5","likertLabels":["Extremely unlikely","Unlikely","Somewhat unlikely","Neither likely nor unlikely","Somewhat likely","Likely","Extremely likely"]},"url":"https://gershmanlab.com/experiments/alicia/PRE_exp3/experiment/index.html?PROLIFIC_PID=63972c71f83340241c366b6a&STUDY_ID=6436e7076eedf62b8d53f522&SESSION_ID=6436f4c8df214015bac33584&participant=34"},{"rt":175580,"response":{"less":4,"more":"","equal":""},"question_order":[0,1,2],"type":"response","story":"scheduling","social_interaction":"precedent","vignette":"Consider Matt and William, who want to have a weekly joint meal at an Italian restaurant near their workplace. Matt prefers lunches, because Matt likes to have a free schedule after work. William prefers dinners because William prefers not to break up the work day by traveling somewhere after lunch. They get dinner every Wednesday at 7pm. How likely is it that","answer_labels":{"less":"Matt and William are in a relationship where Matt has less power, status, or influence than William.","more":"Matt and William are in a relationship where Matt has more power, status, or influence than William.","equal":"Matt and William are in a relationship where they have equal power, status, or influence."},"trial_type":"survey-likert","trial_index":12,"time_elapsed":620919,"internal_node_id":"0.0-3.0-0.4","subject_id":"63972c71f83340241c366b6a","study_id":"6436e7076eedf62b8d53f522","session_id":"6436f4c8df214015bac33584","condition_number":34,"params":{"completionMinutes":20,"basePay":"5","likertLabels":["Extremely unlikely","Unlikely","Somewhat unlikely","Neither likely nor unlikely","Somewhat likely","Likely","Extremely likely"]},"url":"https://gershmanlab.com/experiments/alicia/PRE_exp3/experiment/index.html?PROLIFIC_PID=63972c71f83340241c366b6a&STUDY_ID=6436e7076eedf62b8d53f522&SESSION_ID=6436f4c8df214015bac33584&participant=34"},{"rt":24499,"response":{"less":1,"more":1,"equal":5},"question_order":[0,1,2],"type":"response","story":"housemates","social_interaction":"no_interaction","vignette":"Consider Sarah and Anne, who both live in the same old building. Sarah noticed that some pipes and wires were damaged. Anne noticed that the shared facilities needed detergent and batteries. They each wrote a list and gave it to the building superintendent. How likely is it that","answer_labels":{"less":"Anne and Sarah are in a relationship where Anne has less power, status, or influence than Sarah.","more":"Anne and Sarah are in a relationship where Anne has more power, status, or influence than Sarah.","equal":"Anne and Sarah are in a relationship where they have equal power, status, or influence."},"trial_type":"survey-likert","trial_index":14,"time_elapsed":648628,"internal_node_id":"0.0-3.0-0.5","subject_id":"63972c71f83340241c366b6a","study_id":"6436e7076eedf62b8d53f522","session_id":"6436f4c8df214015bac33584","condition_number":34,"params":{"completionMinutes":20,"basePay":"5","likertLabels":["Extremely unlikely","Unlikely","Somewhat unlikely","Neither likely nor unlikely","Somewhat likely","Likely","Extremely likely"]},"url":"https://gershmanlab.com/experiments/alicia/PRE_exp3/experiment/index.html?PROLIFIC_PID=63972c71f83340241c366b6a&STUDY_ID=6436e7076eedf62b8d53f522&SESSION_ID=6436f4c8df214015bac33584&participant=34"},{"rt":17326,"response":{"less":1,"more":1,"equal":5},"question_order":[0,1,2],"type":"response","story":"conversation","social_interaction":"precedent","vignette":"Consider Alice and Angela, who work at the same company. They meet weekly. Every time they meet, Alice spends most of the one-hour meeting talking, while Angela spends most of the one-hour meeting listening and asking questions. How likely is it that","answer_labels":{"less":"Angela and Alice are in a relationship where Angela has less power, status, or influence than Alice.","more":"Angela and Alice are in a relationship where Angela has more power, status, or influence than Alice.","equal":"Angela and Alice are in a relationship where they have equal power, status, or influence."},"trial_type":"survey-likert","trial_index":16,"time_elapsed":667462,"internal_node_id":"0.0-3.0-0.6","subject_id":"63972c71f83340241c366b6a","study_id":"6436e7076eedf62b8d53f522","session_id":"6436f4c8df214015bac33584","condition_number":34,"params":{"completionMinutes":20,"basePay":"5","likertLabels":["Extremely unlikely","Unlikely","Somewhat unlikely","Neither likely nor unlikely","Somewhat likely","Likely","Extremely likely"]},"url":"https://gershmanlab.com/experiments/alicia/PRE_exp3/experiment/index.html?PROLIFIC_PID=63972c71f83340241c366b6a&STUDY_ID=6436e7076eedf62b8d53f522&SESSION_ID=6436f4c8df214015bac33584&participant=34"},{"rt":27553,"response":{"less":1,"more":1,"equal":5},"question_order":[0,1,2],"type":"response","story":"meeting location","social_interaction":"no_interaction","vignette":"Consider Ethan and Benjamin, who both work at Boston-area nonprofits. Ethan meets with James in Ethan's office once a week. Benjamin meets with Charlie in Benjamin's office once a week. How likely is it that","answer_labels":{"less":"Ethan and Benjamin are in a relationship where Ethan has less power, status, or influence than Benjamin.","more":"Ethan and Benjamin are in a relationship where Ethan has more power, status, or influence than Benjamin.","equal":"Ethan and Benjamin are in a relationship where they have equal power, status, or influence."},"trial_type":"survey-likert","trial_index":18,"time_elapsed":697024,"internal_node_id":"0.0-3.0-0.7","subject_id":"63972c71f83340241c366b6a","study_id":"6436e7076eedf62b8d53f522","session_id":"6436f4c8df214015bac33584","condition_number":34,"params":{"completionMinutes":20,"basePay":"5","likertLabels":["Extremely unlikely","Unlikely","Somewhat unlikely","Neither likely nor unlikely","Somewhat likely","Likely","Extremely likely"]},"url":"https://gershmanlab.com/experiments/alicia/PRE_exp3/experiment/index.html?PROLIFIC_PID=63972c71f83340241c366b6a&STUDY_ID=6436e7076eedf62b8d53f522&SESSION_ID=6436f4c8df214015bac33584&participant=34"},{"rt":15597,"response":{"less":1,"more":1,"equal":5},"question_order":[0,1,2],"type":"response","story":"meeting prep","social_interaction":"reciprocity","vignette":"Consider Chloe and Victoria, who work at the same news station. They meet once a week. Chloe and Victoria alternate preparing the agenda for each meeting and booking the meeting room. How likely is it that","answer_labels":{"less":"Chloe and Victoria are in a relationship where Chloe has less power, status, or influence than Victoria.","more":"Chloe and Victoria are in a relationship where Chloe has more power, status, or influence than Victoria.","equal":"Chloe and Victoria are in a relationship where they have equal power, status, or influence."},"trial_type":"survey-likert","trial_index":20,"time_elapsed":714129,"internal_node_id":"0.0-3.0-0.8","subject_id":"63972c71f83340241c366b6a","study_id":"6436e7076eedf62b8d53f522","session_id":"6436f4c8df214015bac33584","condition_number":34,"params":{"completionMinutes":20,"basePay":"5","likertLabels":["Extremely unlikely","Unlikely","Somewhat unlikely","Neither likely nor unlikely","Somewhat likely","Likely","Extremely likely"]},"url":"https://gershmanlab.com/experiments/alicia/PRE_exp3/experiment/index.html?PROLIFIC_PID=63972c71f83340241c366b6a&STUDY_ID=6436e7076eedf62b8d53f522&SESSION_ID=6436f4c8df214015bac33584&participant=34"},{"rt":24268,"response":{"less":2,"more":4,"equal":2},"question_order":[0,1,2],"type":"response","story":"concerts","social_interaction":"precedent","vignette":"Consider Kevin and Allen, who frequently go to concerts together. Whenever they go to a concert together, Kevin always pays for the tickets. How likely is it that","answer_labels":{"less":"Kevin and Allen are in a relationship where Kevin has less power, status, or influence than Allen.","more":"Kevin and Allen are in a relationship where Kevin has more power, status, or influence than Allen.","equal":"Kevin and Allen are in a relationship where they have equal power, status, or influence."},"trial_type":"survey-likert","trial_index":22,"time_elapsed":739907,"internal_node_id":"0.0-3.0-0.9","subject_id":"63972c71f83340241c366b6a","study_id":"6436e7076eedf62b8d53f522","session_id":"6436f4c8df214015bac33584","condition_number":34,"params":{"completionMinutes":20,"basePay":"5","likertLabels":["Extremely unlikely","Unlikely","Somewhat unlikely","Neither likely nor unlikely","Somewhat likely","Likely","Extremely likely"]},"url":"https://gershmanlab.com/experiments/alicia/PRE_exp3/experiment/index.html?PROLIFIC_PID=63972c71f83340241c366b6a&STUDY_ID=6436e7076eedf62b8d53f522&SESSION_ID=6436f4c8df214015bac33584&participant=34"},{"rt":19872,"response":{"less":1,"more":1,"equal":5},"question_order":[0,1,2],"type":"response","story":"family meals","social_interaction":"reciprocity","vignette":"Consider Sue and Martha, who are part of the same family. Four times a year, the whole family gets together for key religious holidays. Two times, the family gathers at Sue’s house where Sue cooks all the food, serves it, and then cleans up after dinner. The other two times, the family gathers at Martha’s house, and Martha does all the cooking and cleaning. How likely is it that","answer_labels":{"less":"Sue and Martha are in a relationship where Sue has less power, status, or influence than Martha.","more":"Sue and Martha are in a relationship where Sue has more power, status, or influence than Martha.","equal":"Sue and Martha are in a relationship where they have equal power, status, or influence."},"trial_type":"survey-likert","trial_index":24,"time_elapsed":761790,"internal_node_id":"0.0-3.0-0.10","subject_id":"63972c71f83340241c366b6a","study_id":"6436e7076eedf62b8d53f522","session_id":"6436f4c8df214015bac33584","condition_number":34,"params":{"completionMinutes":20,"basePay":"5","likertLabels":["Extremely unlikely","Unlikely","Somewhat unlikely","Neither likely nor unlikely","Somewhat likely","Likely","Extremely likely"]},"url":"https://gershmanlab.com/experiments/alicia/PRE_exp3/experiment/index.html?PROLIFIC_PID=63972c71f83340241c366b6a&STUDY_ID=6436e7076eedf62b8d53f522&SESSION_ID=6436f4c8df214015bac33584&participant=34"},{"rt":55423,"response":{"less":1,"more":1,"equal":5},"question_order":[0,1,2],"type":"response","story":"restaurant","social_interaction":"reciprocity","vignette":"Consider Avery and Grace, who go out to eat together every Thursday after work. There are two restaurants near their work: a Chinese restaurant, and an Indian restaurant. Avery prefers the Chinese restaurant, while Grace prefers the Indian restaurant. Each week, they alternate going to the Chinese restaurant and going to the Indian restaurant. How likely is it that","answer_labels":{"less":"Grace and Avery are in a relationship where Grace has less power, status, or influence than Avery.","more":"Grace and Avery are in a relationship where Grace has more power, status, or influence than Avery.","equal":"Grace and Avery are in a relationship where they have equal power, status, or influence."},"trial_type":"survey-likert","trial_index":26,"time_elapsed":818733,"internal_node_id":"0.0-3.0-0.11","subject_id":"63972c71f83340241c366b6a","study_id":"6436e7076eedf62b8d53f522","session_id":"6436f4c8df214015bac33584","condition_number":34,"params":{"completionMinutes":20,"basePay":"5","likertLabels":["Extremely unlikely","Unlikely","Somewhat unlikely","Neither likely nor unlikely","Somewhat likely","Likely","Extremely likely"]},"url":"https://gershmanlab.com/experiments/alicia/PRE_exp3/experiment/index.html?PROLIFIC_PID=63972c71f83340241c366b6a&STUDY_ID=6436e7076eedf62b8d53f522&SESSION_ID=6436f4c8df214015bac33584&participant=34"},{"rt":31709,"response":{"less":1,"more":1,"equal":5},"question_order":[0,1,2],"type":"response","story":"police","social_interaction":"reciprocity","vignette":"Consider Justin and Jarred, who are police officers on the same beat.  Justin and Jarred take turns going to the office at 6am to do the day's paperwork, so that the other one can arrive later and go straight to their shared patrol car. How likely is it that","answer_labels":{"less":"Justin and Jarred are in a relationship where Justin has less power, status, or influence than Jarred.","more":"Justin and Jarred are in a relationship where Justin has more power, status, or influence than Jarred.","equal":"Justin and Jarred are in a relationship where they have equal power, status, or influence."},"trial_type":"survey-likert","trial_index":28,"time_elapsed":852201,"internal_node_id":"0.0-3.0-0.12","subject_id":"63972c71f83340241c366b6a","study_id":"6436e7076eedf62b8d53f522","session_id":"6436f4c8df214015bac33584","condition_number":34,"params":{"completionMinutes":20,"basePay":"5","likertLabels":["Extremely unlikely","Unlikely","Somewhat unlikely","Neither likely nor unlikely","Somewhat likely","Likely","Extremely likely"]},"url":"https://gershmanlab.com/experiments/alicia/PRE_exp3/experiment/index.html?PROLIFIC_PID=63972c71f83340241c366b6a&STUDY_ID=6436e7076eedf62b8d53f522&SESSION_ID=6436f4c8df214015bac33584&participant=34"},{"rt":12401,"response":{"less":1,"more":1,"equal":5},"question_order":[0,1,2],"type":"response","story":"coffee","social_interaction":"reciprocity","vignette":"Consider Andrew and Bob, who work in the same field. They meet once a week for coffee. Every week, Bob and Andrew alternate who buys and brings coffee to the meeting for both of them. How likely is it that","answer_labels":{"less":"Bob and Andrew are in a relationship where Bob has less power, status, or influence than Andrew.","more":"Bob and Andrew are in a relationship where Bob has more power, status, influence than Andrew.","equal":"Bob and Andrew have equal power, status, or influence."},"trial_type":"survey-likert","trial_index":30,"time_elapsed":866121,"internal_node_id":"0.0-3.0-0.13","subject_id":"63972c71f83340241c366b6a","study_id":"6436e7076eedf62b8d53f522","session_id":"6436f4c8df214015bac33584","condition_number":34,"params":{"completionMinutes":20,"basePay":"5","likertLabels":["Extremely unlikely","Unlikely","Somewhat unlikely","Neither likely nor unlikely","Somewhat likely","Likely","Extremely likely"]},"url":"https://gershmanlab.com/experiments/alicia/PRE_exp3/experiment/index.html?PROLIFIC_PID=63972c71f83340241c366b6a&STUDY_ID=6436e7076eedf62b8d53f522&SESSION_ID=6436f4c8df214015bac33584&participant=34"},{"rt":44111,"response":{"less":1,"more":1,"equal":5},"question_order":[0,1,2],"type":"response","story":"gifts","social_interaction":"no_interaction","vignette":"Consider two families, the Lee family and the Min family. Every year, the Lee family gives the Wong family a precious and expensive gift. Every year, the Min family gives the Chen familly a precious and expensive gift. How likely is it that","answer_labels":{"less":"The Lee family and the Min family are in a relationship where the Lee family has less power, status, or influence than the Min family.","more":"The Lee family and the Min family are in a relationship where the Lee family has more power, status, or influence than the Min family.","equal":"The Lee family and the Min family are in a relationship where they have equal power, status, or influence."},"trial_type":"survey-likert","trial_index":32,"time_elapsed":912255,"internal_node_id":"0.0-3.0-0.14","subject_id":"63972c71f83340241c366b6a","study_id":"6436e7076eedf62b8d53f522","session_id":"6436f4c8df214015bac33584","condition_number":34,"params":{"completionMinutes":20,"basePay":"5","likertLabels":["Extremely unlikely","Unlikely","Somewhat unlikely","Neither likely nor unlikely","Somewhat likely","Likely","Extremely likely"]},"url":"https://gershmanlab.com/experiments/alicia/PRE_exp3/experiment/index.html?PROLIFIC_PID=63972c71f83340241c366b6a&STUDY_ID=6436e7076eedf62b8d53f522&SESSION_ID=6436f4c8df214015bac33584&participant=34"},{"rt":24898,"response":{"less":1,"more":5,"equal":1},"question_order":[0,1,2],"type":"response","story":"group project","social_interaction":"precedent","vignette":"Consider Maxwell and Ralph, two people at the same company who are assigned to work together on the same project. Maxwell contributes most of the ideas, and also delegates tasks to Ralph. Each time they meet, Maxwell decides what to do next. How likely is it that","answer_labels":{"less":"Maxwell and Ralph are in a relationship where Maxwell has less power, status, or influence than Ralph.","more":"Maxwell and Ralph are in a relationship where Maxwell has more power, status, or influence than Ralph.","equal":"Maxwell and Ralph are in a relationship where they have equal power, status, or influence."},"trial_type":"survey-likert","trial_index":34,"time_elapsed":938668,"internal_node_id":"0.0-3.0-0.15","subject_id":"63972c71f83340241c366b6a","study_id":"6436e7076eedf62b8d53f522","session_id":"6436f4c8df214015bac33584","condition_number":34,"params":{"completionMinutes":20,"basePay":"5","likertLabels":["Extremely unlikely","Unlikely","Somewhat unlikely","Neither likely nor unlikely","Somewhat likely","Likely","Extremely likely"]},"url":"https://gershmanlab.com/experiments/alicia/PRE_exp3/experiment/index.html?PROLIFIC_PID=63972c71f83340241c366b6a&STUDY_ID=6436e7076eedf62b8d53f522&SESSION_ID=6436f4c8df214015bac33584&participant=34"},{"rt":15598,"response":{"less":1,"more":1,"equal":5},"question_order":[0,1,2],"type":"response","story":"groceries","social_interaction":"no_interaction","vignette":"Consider Dylan and Caleb, who live on the 5th floor of a walkup in Manhattan, with a steep narrow staircase. Dylan carries his own groceries up the stairs. Caleb carries his own groceries up the stairs. How likely is it that","answer_labels":{"less":"Caleb and Dylan are in a relationship where Caleb has less power, status, or influence than Dylan.","more":"Caleb are in a relationship where Caleb has more power, status, or influence than Dylan.","equal":"Caleb and Dylan are in a relationship where they have equal power, status, or influence."},"trial_type":"survey-likert","trial_index":36,"time_elapsed":955774,"internal_node_id":"0.0-3.0-0.16","subject_id":"63972c71f83340241c366b6a","study_id":"6436e7076eedf62b8d53f522","session_id":"6436f4c8df214015bac33584","condition_number":34,"params":{"completionMinutes":20,"basePay":"5","likertLabels":["Extremely unlikely","Unlikely","Somewhat unlikely","Neither likely nor unlikely","Somewhat likely","Likely","Extremely likely"]},"url":"https://gershmanlab.com/experiments/alicia/PRE_exp3/experiment/index.html?PROLIFIC_PID=63972c71f83340241c366b6a&STUDY_ID=6436e7076eedf62b8d53f522&SESSION_ID=6436f4c8df214015bac33584&participant=34"},{"rt":46491,"response":{"less":5,"more":1,"equal":1},"question_order":[0,1,2],"type":"response","story":"weekend","social_interaction":"no_interaction","vignette":"Consider Abby and Evelyn, who have different preferences for the activities they do during weekends. Every weekend, Abby wakes up early to do intense outdoor activities. Evelyn sleeps in, gets brunch, and walks around the city. How likely is it that","answer_labels":{"less":"Evelyn and Abby are in a relationship where Evelyn has less power, status, or influence than Abby.","more":"Evelyn and Abby are in a relationship where Evelyn has more power, status, or influence than Abby.","equal":"Evelyn and Abby are in a relationship where they have equal power, status, or influence."},"trial_type":"survey-likert","trial_index":38,"time_elapsed":1003784,"internal_node_id":"0.0-3.0-0.17","subject_id":"63972c71f83340241c366b6a","study_id":"6436e7076eedf62b8d53f522","session_id":"6436f4c8df214015bac33584","condition_number":34,"params":{"completionMinutes":20,"basePay":"5","likertLabels":["Extremely unlikely","Unlikely","Somewhat unlikely","Neither likely nor unlikely","Somewhat likely","Likely","Extremely likely"]},"url":"https://gershmanlab.com/experiments/alicia/PRE_exp3/experiment/index.html?PROLIFIC_PID=63972c71f83340241c366b6a&STUDY_ID=6436e7076eedf62b8d53f522&SESSION_ID=6436f4c8df214015bac33584&participant=34"},{"rt":18219,"response":{"less":6,"more":0,"equal":6},"question_order":[0,1,2],"type":"response","story":"","social_interaction":"attention","vignette":"Thank you for contributing to this study! This page is an attention check so we can make sure you're not a bot and can award you your pay when you complete the study.","answer_labels":{"less":"Please select \"extremely likely\" for this question.","more":"Please select \"extremely unlikely\" for this question.","equal":"Please select \"extremely likely\" for this question."},"trial_type":"survey-likert","trial_index":40,"time_elapsed":1023761,"internal_node_id":"0.0-4.0","subject_id":"63972c71f83340241c366b6a","study_id":"6436e7076eedf62b8d53f522","session_id":"6436f4c8df214015bac33584","condition_number":34,"params":{"completionMinutes":20,"basePay":"5","likertLabels":["Extremely unlikely","Unlikely","Somewhat unlikely","Neither likely nor unlikely","Somewhat likely","Likely","Extremely likely"]},"url":"https://gershmanlab.com/experiments/alicia/PRE_exp3/experiment/index.html?PROLIFIC_PID=63972c71f83340241c366b6a&STUDY_ID=6436e7076eedf62b8d53f522&SESSION_ID=6436f4c8df214015bac33584&participant=34","passAttentionCheck":true},{"rt":16691,"response":{"gender":"male","age":"34","understood":"yes","comments":"         None   "},"type":"response","trial_type":"survey-html-form","trial_index":41,"time_elapsed":1040455,"internal_node_id":"0.0-5.0","subject_id":"63972c71f83340241c366b6a","study_id":"6436e7076eedf62b8d53f522","session_id":"6436f4c8df214015bac33584","condition_number":34,"params":{"completionMinutes":20,"basePay":"5","likertLabels":["Extremely unlikely","Unlikely","Somewhat unlikely","Neither likely nor unlikely","Somewhat likely","Likely","Extremely likely"]},"url":"https://gershmanlab.com/experiments/alicia/PRE_exp3/experiment/index.html?PROLIFIC_PID=63972c71f83340241c366b6a&STUDY_ID=6436e7076eedf62b8d53f522&SESSION_ID=6436f4c8df214015bac33584&participant=34"}]