[{"rt":54692,"response":{"less":3,"more":3,"equal":4},"question_order":[0,1,2],"type":"response","story":"feedback","social_interaction":"no_interaction","vignette":"Consider Taylor and Samantha, who are both fiction writers living in the same city, and frequently attend the same group writing workshops. Taylor generally gives Roberta feedback on her work, while Samantha gives Alexandra feedback on her work. How likely is it that","answer_labels":{"less":"Taylor and Samantha are in a relationship where Taylor has less power, status, or influence than Samantha.","more":"Taylor and Samantha are in a relationship where Taylor has more power, status, or influence than Samantha.","equal":"Taylor and Samantha are in a relationship where they have equal power, status, or influence."},"trial_type":"survey-likert","trial_index":4,"time_elapsed":149037,"internal_node_id":"0.0-3.0-0.0","subject_id":"63c25e4d8faec4d0ce9b0971","study_id":"6436e7076eedf62b8d53f522","session_id":"6436f19b2651ec5f08a02bc1","condition_number":25,"params":{"completionMinutes":20,"basePay":"5","likertLabels":["Extremely unlikely","Unlikely","Somewhat unlikely","Neither likely nor unlikely","Somewhat likely","Likely","Extremely likely"]},"url":"https://gershmanlab.com/experiments/alicia/PRE_exp3/experiment/index.html?PROLIFIC_PID=63c25e4d8faec4d0ce9b0971&STUDY_ID=6436e7076eedf62b8d53f522&SESSION_ID=6436f19b2651ec5f08a02bc1&participant=25"},{"rt":61583,"response":{"less":5,"more":2,"equal":1},"question_order":[0,1,2],"type":"response","story":"restaurant","social_interaction":"precedent","vignette":"Consider Avery and Grace, who go out to eat together every Thursday after work. There are two restaurants near their work: a Chinese restaurant, and an Indian restaurant. Avery prefers the Chinese restaurant, while Grace prefers the Indian restaurant. They go to the Chinese restaurant every week. How likely is it that","answer_labels":{"less":"Grace and Avery are in a relationship where Grace has less power, status, or influence than Avery.","more":"Grace and Avery are in a relationship where Grace has more power, status, or influence than Avery.","equal":"Grace and Avery are in a relationship where they have equal power, status, or influence."},"trial_type":"survey-likert","trial_index":6,"time_elapsed":212660,"internal_node_id":"0.0-3.0-0.1","subject_id":"63c25e4d8faec4d0ce9b0971","study_id":"6436e7076eedf62b8d53f522","session_id":"6436f19b2651ec5f08a02bc1","condition_number":25,"params":{"completionMinutes":20,"basePay":"5","likertLabels":["Extremely unlikely","Unlikely","Somewhat unlikely","Neither likely nor unlikely","Somewhat likely","Likely","Extremely likely"]},"url":"https://gershmanlab.com/experiments/alicia/PRE_exp3/experiment/index.html?PROLIFIC_PID=63c25e4d8faec4d0ce9b0971&STUDY_ID=6436e7076eedf62b8d53f522&SESSION_ID=6436f19b2651ec5f08a02bc1&participant=25"},{"rt":59361,"response":{"less":1,"more":5,"equal":1},"question_order":[0,1,2],"type":"response","story":"police","social_interaction":"no_interaction","vignette":"Consider Justin and Jarred, who are both police officers in the same city. Each day, Justin goes to the office at 6am to do the day's paperwork. The first thing Jarred does every day is go straight to his patrol car. How likely is it that","answer_labels":{"less":"Justin and Jarred are in a relationship where Justin has less power, status, or influence than Jarred.","more":"Justin and Jarred are in a relationship where Justin has more power, status, or influence than Jarred.","equal":"Justin and Jarred are in a relationship where they have equal power, status, or influence."},"trial_type":"survey-likert","trial_index":8,"time_elapsed":274053,"internal_node_id":"0.0-3.0-0.2","subject_id":"63c25e4d8faec4d0ce9b0971","study_id":"6436e7076eedf62b8d53f522","session_id":"6436f19b2651ec5f08a02bc1","condition_number":25,"params":{"completionMinutes":20,"basePay":"5","likertLabels":["Extremely unlikely","Unlikely","Somewhat unlikely","Neither likely nor unlikely","Somewhat likely","Likely","Extremely likely"]},"url":"https://gershmanlab.com/experiments/alicia/PRE_exp3/experiment/index.html?PROLIFIC_PID=63c25e4d8faec4d0ce9b0971&STUDY_ID=6436e7076eedf62b8d53f522&SESSION_ID=6436f19b2651ec5f08a02bc1&participant=25"},{"rt":50270,"response":{"less":5,"more":1,"equal":1},"question_order":[0,1,2],"type":"response","story":"meeting prep","social_interaction":"precedent","vignette":"Consider Chloe and Victoria, who work at the same news station. They meet once a week. Chloe always prepares the agenda for each meeting and books the meeting room. How likely is it that","answer_labels":{"less":"Chloe and Victoria are in a relationship where Chloe has less power, status, or influence than Victoria.","more":"Chloe and Victoria are in a relationship where Chloe has more power, status, or influence than Victoria.","equal":"Chloe and Victoria are in a relationship where they have equal power, status, or influence."},"trial_type":"survey-likert","trial_index":10,"time_elapsed":326123,"internal_node_id":"0.0-3.0-0.3","subject_id":"63c25e4d8faec4d0ce9b0971","study_id":"6436e7076eedf62b8d53f522","session_id":"6436f19b2651ec5f08a02bc1","condition_number":25,"params":{"completionMinutes":20,"basePay":"5","likertLabels":["Extremely unlikely","Unlikely","Somewhat unlikely","Neither likely nor unlikely","Somewhat likely","Likely","Extremely likely"]},"url":"https://gershmanlab.com/experiments/alicia/PRE_exp3/experiment/index.html?PROLIFIC_PID=63c25e4d8faec4d0ce9b0971&STUDY_ID=6436e7076eedf62b8d53f522&SESSION_ID=6436f19b2651ec5f08a02bc1&participant=25"},{"rt":56137,"response":{"less":1,"more":1,"equal":3},"question_order":[0,1,2],"type":"response","story":"fundraising","social_interaction":"reciprocity","vignette":"Consider Caroline and Bella, who both frequently run for charity, as a team. They have to raise money for their charity to enter the race. Each time they enter a race, Caroline and Bella alternate taking care of the advertising and fundraising, contacting their friends to ask them if they would like to donate to their charity. How likely is it that","answer_labels":{"less":"Caroline and Bella are in a relationship where Caroline has less power, status, or influence than Bella.","more":"Caroline and Bella are in a relationship where Caroline has more power, status, or influence than Bella.","equal":"Caroline and Bella have equal power, status, or influence."},"trial_type":"survey-likert","trial_index":12,"time_elapsed":384609,"internal_node_id":"0.0-3.0-0.4","subject_id":"63c25e4d8faec4d0ce9b0971","study_id":"6436e7076eedf62b8d53f522","session_id":"6436f19b2651ec5f08a02bc1","condition_number":25,"params":{"completionMinutes":20,"basePay":"5","likertLabels":["Extremely unlikely","Unlikely","Somewhat unlikely","Neither likely nor unlikely","Somewhat likely","Likely","Extremely likely"]},"url":"https://gershmanlab.com/experiments/alicia/PRE_exp3/experiment/index.html?PROLIFIC_PID=63c25e4d8faec4d0ce9b0971&STUDY_ID=6436e7076eedf62b8d53f522&SESSION_ID=6436f19b2651ec5f08a02bc1&participant=25"},{"rt":42002,"response":{"less":1,"more":1,"equal":6},"question_order":[0,1,2],"type":"response","story":"group project","social_interaction":"reciprocity","vignette":"Consider Maxwell and Ralph, two people at the same company who are assigned to work together on the same project. Each time they meet, they take turns delegating tasks, contributing ideas, and proposing what to do next. How likely is it that","answer_labels":{"less":"Maxwell and Ralph are in a relationship where Maxwell has less power, status, or influence than Ralph.","more":"Maxwell and Ralph are in a relationship where Maxwell has more power, status, or influence than Ralph.","equal":"Maxwell and Ralph are in a relationship where they have equal power, status, or influence."},"trial_type":"survey-likert","trial_index":14,"time_elapsed":428181,"internal_node_id":"0.0-3.0-0.5","subject_id":"63c25e4d8faec4d0ce9b0971","study_id":"6436e7076eedf62b8d53f522","session_id":"6436f19b2651ec5f08a02bc1","condition_number":25,"params":{"completionMinutes":20,"basePay":"5","likertLabels":["Extremely unlikely","Unlikely","Somewhat unlikely","Neither likely nor unlikely","Somewhat likely","Likely","Extremely likely"]},"url":"https://gershmanlab.com/experiments/alicia/PRE_exp3/experiment/index.html?PROLIFIC_PID=63c25e4d8faec4d0ce9b0971&STUDY_ID=6436e7076eedf62b8d53f522&SESSION_ID=6436f19b2651ec5f08a02bc1&participant=25"},{"rt":58886,"response":{"less":3,"more":3,"equal":3},"question_order":[0,1,2],"type":"response","story":"family meals","social_interaction":"no_interaction","vignette":"Consider Sue and Martha, who each are parts of large families. Sue’s family gets together for key religious holidays four times a year, gathering at Sue’s house where Sue cooks all the food, serves it, and then cleans up after dinner. Martha's family gets together for key religious holidays four times a year, gathering at Martha's house where Martha cooks all the food, serves it, and then cleans up after dinner.","answer_labels":{"less":"Sue and Martha are in a relationship where Sue has less power, status, or influence than Martha.","more":"Sue and Martha are in a relationship where Sue has more power, status, or influence than Martha.","equal":"Sue and Martha are in a relationship where they have equal power, status, or influence."},"trial_type":"survey-likert","trial_index":16,"time_elapsed":488845,"internal_node_id":"0.0-3.0-0.6","subject_id":"63c25e4d8faec4d0ce9b0971","study_id":"6436e7076eedf62b8d53f522","session_id":"6436f19b2651ec5f08a02bc1","condition_number":25,"params":{"completionMinutes":20,"basePay":"5","likertLabels":["Extremely unlikely","Unlikely","Somewhat unlikely","Neither likely nor unlikely","Somewhat likely","Likely","Extremely likely"]},"url":"https://gershmanlab.com/experiments/alicia/PRE_exp3/experiment/index.html?PROLIFIC_PID=63c25e4d8faec4d0ce9b0971&STUDY_ID=6436e7076eedf62b8d53f522&SESSION_ID=6436f19b2651ec5f08a02bc1&participant=25"},{"rt":57068,"response":{"less":1,"more":1,"equal":5},"question_order":[0,1,2],"type":"response","story":"scheduling","social_interaction":"reciprocity","vignette":"Consider Matt and William, who want to have a weekly joint meal at an Italian restaurant near their workplace. Matt prefers lunches, because Matt likes to have a free schedule after work. William prefers dinners because William prefers not to break up the work day by traveling somewhere after lunch. They alternate between getting lunch Tuesdays at noon, and getting dinner Wednesdays at 7pm. How likely is it that","answer_labels":{"less":"Matt and William are in a relationship where Matt has less power, status, or influence than William.","more":"Matt and William are in a relationship where Matt has more power, status, or influence than William.","equal":"Matt and William are in a relationship where they have equal power, status, or influence."},"trial_type":"survey-likert","trial_index":18,"time_elapsed":549419,"internal_node_id":"0.0-3.0-0.7","subject_id":"63c25e4d8faec4d0ce9b0971","study_id":"6436e7076eedf62b8d53f522","session_id":"6436f19b2651ec5f08a02bc1","condition_number":25,"params":{"completionMinutes":20,"basePay":"5","likertLabels":["Extremely unlikely","Unlikely","Somewhat unlikely","Neither likely nor unlikely","Somewhat likely","Likely","Extremely likely"]},"url":"https://gershmanlab.com/experiments/alicia/PRE_exp3/experiment/index.html?PROLIFIC_PID=63c25e4d8faec4d0ce9b0971&STUDY_ID=6436e7076eedf62b8d53f522&SESSION_ID=6436f19b2651ec5f08a02bc1&participant=25"},{"rt":37991,"response":{"less":2,"more":2,"equal":3},"question_order":[0,1,2],"type":"response","story":"concerts","social_interaction":"reciprocity","vignette":"Consider Kevin and Allen, who frequently go to concerts together. Whenever they go to a concert together, Kevin and Allen alternate paying for the tickets. How likely is it that","answer_labels":{"less":"Kevin and Allen are in a relationship where Kevin has less power, status, or influence than Allen.","more":"Kevin and Allen are in a relationship where Kevin has more power, status, or influence than Allen.","equal":"Kevin and Allen are in a relationship where they have equal power, status, or influence."},"trial_type":"survey-likert","trial_index":20,"time_elapsed":589430,"internal_node_id":"0.0-3.0-0.8","subject_id":"63c25e4d8faec4d0ce9b0971","study_id":"6436e7076eedf62b8d53f522","session_id":"6436f19b2651ec5f08a02bc1","condition_number":25,"params":{"completionMinutes":20,"basePay":"5","likertLabels":["Extremely unlikely","Unlikely","Somewhat unlikely","Neither likely nor unlikely","Somewhat likely","Likely","Extremely likely"]},"url":"https://gershmanlab.com/experiments/alicia/PRE_exp3/experiment/index.html?PROLIFIC_PID=63c25e4d8faec4d0ce9b0971&STUDY_ID=6436e7076eedf62b8d53f522&SESSION_ID=6436f19b2651ec5f08a02bc1&participant=25"},{"rt":66608,"response":{"less":3,"more":3,"equal":4},"question_order":[0,1,2],"type":"response","story":"babysitting","social_interaction":"no_interaction","vignette":"Consider Ryan and John, who both have two children under 10 years old. Every week, Ryan volunteers to watch his children, so his partner Elliot can have some focused time to work. John volunteers to watch his children, so his partner Cody can have some focused time to work.","answer_labels":{"less":"John and Ryan are in a relationship where John has less power, status, or influence than Ryan.","more":"John and Ryan are in a relationship where John has more power, status, or influence than Ryan.","equal":"John and Ryan are in a relationship where they have equal power, status, or influence."},"trial_type":"survey-likert","trial_index":22,"time_elapsed":657828,"internal_node_id":"0.0-3.0-0.9","subject_id":"63c25e4d8faec4d0ce9b0971","study_id":"6436e7076eedf62b8d53f522","session_id":"6436f19b2651ec5f08a02bc1","condition_number":25,"params":{"completionMinutes":20,"basePay":"5","likertLabels":["Extremely unlikely","Unlikely","Somewhat unlikely","Neither likely nor unlikely","Somewhat likely","Likely","Extremely likely"]},"url":"https://gershmanlab.com/experiments/alicia/PRE_exp3/experiment/index.html?PROLIFIC_PID=63c25e4d8faec4d0ce9b0971&STUDY_ID=6436e7076eedf62b8d53f522&SESSION_ID=6436f19b2651ec5f08a02bc1&participant=25"},{"rt":84656,"response":{"less":5,"more":2,"equal":2},"question_order":[0,1,2],"type":"response","story":"weekend","social_interaction":"precedent","vignette":"Consider Abby and Evelyn, who want to spend time together during weekends. Abby prefers waking up early to do intense outdoor activities, while Evelyn prefers sleeping in, getting brunch, and walking around the city. Every weekend, Abby and Evelyn wake up early both days to do intense outdoor activities. How likely is it that","answer_labels":{"less":"Evelyn and Abby are in a relationship where Evelyn has less power, status, or influence than Abby.","more":"Evelyn and Abby are in a relationship where Evelyn has more power, status, or influence than Abby.","equal":"Evelyn and Abby are in a relationship where they have equal power, status, or influence."},"trial_type":"survey-likert","trial_index":24,"time_elapsed":744822,"internal_node_id":"0.0-3.0-0.10","subject_id":"63c25e4d8faec4d0ce9b0971","study_id":"6436e7076eedf62b8d53f522","session_id":"6436f19b2651ec5f08a02bc1","condition_number":25,"params":{"completionMinutes":20,"basePay":"5","likertLabels":["Extremely unlikely","Unlikely","Somewhat unlikely","Neither likely nor unlikely","Somewhat likely","Likely","Extremely likely"]},"url":"https://gershmanlab.com/experiments/alicia/PRE_exp3/experiment/index.html?PROLIFIC_PID=63c25e4d8faec4d0ce9b0971&STUDY_ID=6436e7076eedf62b8d53f522&SESSION_ID=6436f19b2651ec5f08a02bc1&participant=25"},{"rt":28387,"response":{"less":3,"more":3,"equal":3},"question_order":[0,1,2],"type":"response","story":"meeting location","social_interaction":"precedent","vignette":"Consider Ethan and Benjamin, who work at the same Boston-area nonprofit. They meet once a week. Every week, Ethan walks to Benjamin’s office, where they have the meeting. How likely is it that","answer_labels":{"less":"Ethan and Benjamin are in a relationship where Ethan has less power, status, or influence than Benjamin.","more":"Ethan and Benjamin are in a relationship where Ethan has more power, status, or influence than Benjamin.","equal":"Ethan and Benjamin are in a relationship where they have equal power, status, or influence."},"trial_type":"survey-likert","trial_index":26,"time_elapsed":774989,"internal_node_id":"0.0-3.0-0.11","subject_id":"63c25e4d8faec4d0ce9b0971","study_id":"6436e7076eedf62b8d53f522","session_id":"6436f19b2651ec5f08a02bc1","condition_number":25,"params":{"completionMinutes":20,"basePay":"5","likertLabels":["Extremely unlikely","Unlikely","Somewhat unlikely","Neither likely nor unlikely","Somewhat likely","Likely","Extremely likely"]},"url":"https://gershmanlab.com/experiments/alicia/PRE_exp3/experiment/index.html?PROLIFIC_PID=63c25e4d8faec4d0ce9b0971&STUDY_ID=6436e7076eedf62b8d53f522&SESSION_ID=6436f19b2651ec5f08a02bc1&participant=25"},{"rt":38506,"response":{"less":3,"more":3,"equal":3},"question_order":[0,1,2],"type":"response","story":"coffee","social_interaction":"precedent","vignette":"Consider Andrew and Bob, who work in the same field. They meet once a week for coffee. Every week, Bob buys and brings coffee to the meeting for both of them. How likely is it that","answer_labels":{"less":"Bob and Andrew are in a relationship where Bob has less power, status, or influence than Andrew.","more":"Bob and Andrew are in a relationship where Bob has more power, status, influence than Andrew.","equal":"Bob and Andrew are in a relationship where they have equal power, status, or influence."},"trial_type":"survey-likert","trial_index":28,"time_elapsed":815032,"internal_node_id":"0.0-3.0-0.12","subject_id":"63c25e4d8faec4d0ce9b0971","study_id":"6436e7076eedf62b8d53f522","session_id":"6436f19b2651ec5f08a02bc1","condition_number":25,"params":{"completionMinutes":20,"basePay":"5","likertLabels":["Extremely unlikely","Unlikely","Somewhat unlikely","Neither likely nor unlikely","Somewhat likely","Likely","Extremely likely"]},"url":"https://gershmanlab.com/experiments/alicia/PRE_exp3/experiment/index.html?PROLIFIC_PID=63c25e4d8faec4d0ce9b0971&STUDY_ID=6436e7076eedf62b8d53f522&SESSION_ID=6436f19b2651ec5f08a02bc1&participant=25"},{"rt":27115,"response":{"less":1,"more":1,"equal":5},"question_order":[0,1,2],"type":"response","story":"architects","social_interaction":"no_interaction","vignette":"Consider Sonia and Liana, who work as architects at the same company, but on different teams. Each of them has a system of meticulously double-checking their own designs before they send them out. How likely is it that","answer_labels":{"less":"Sonia and Liana are in a relationship where Sonia has less power, status, or influence than Liana.","more":"Sonia and Liana are in a relationship where Sonia has more power, status, or influence than Liana.","equal":"Sonia and Liana are in a relationship where they have equal power, status, or influence."},"trial_type":"survey-likert","trial_index":30,"time_elapsed":843969,"internal_node_id":"0.0-3.0-0.13","subject_id":"63c25e4d8faec4d0ce9b0971","study_id":"6436e7076eedf62b8d53f522","session_id":"6436f19b2651ec5f08a02bc1","condition_number":25,"params":{"completionMinutes":20,"basePay":"5","likertLabels":["Extremely unlikely","Unlikely","Somewhat unlikely","Neither likely nor unlikely","Somewhat likely","Likely","Extremely likely"]},"url":"https://gershmanlab.com/experiments/alicia/PRE_exp3/experiment/index.html?PROLIFIC_PID=63c25e4d8faec4d0ce9b0971&STUDY_ID=6436e7076eedf62b8d53f522&SESSION_ID=6436f19b2651ec5f08a02bc1&participant=25"},{"rt":42895,"response":{"less":3,"more":3,"equal":3},"question_order":[0,1,2],"type":"response","story":"conversation","social_interaction":"no_interaction","vignette":"Consider Alice and Angela, who work at the same company. Alice has a one-hour weekly meeting with Cathy, where Alice spends most of the meeting listening and asking questions. Angela has a one-hour weekly meeting with Emily, where Angela spends most of the one-hour meeting listening and asking questions. How likely is it that","answer_labels":{"less":"Angela and Alice are in a relationship where Angela has less power, status, or influence than Alice.","more":"Angela and Alice are in a relationship where Angela has more power, status, or influence than Alice.","equal":"Angela and Alice are in a relationship where they have equal power, status, or influence."},"trial_type":"survey-likert","trial_index":32,"time_elapsed":888408,"internal_node_id":"0.0-3.0-0.14","subject_id":"63c25e4d8faec4d0ce9b0971","study_id":"6436e7076eedf62b8d53f522","session_id":"6436f19b2651ec5f08a02bc1","condition_number":25,"params":{"completionMinutes":20,"basePay":"5","likertLabels":["Extremely unlikely","Unlikely","Somewhat unlikely","Neither likely nor unlikely","Somewhat likely","Likely","Extremely likely"]},"url":"https://gershmanlab.com/experiments/alicia/PRE_exp3/experiment/index.html?PROLIFIC_PID=63c25e4d8faec4d0ce9b0971&STUDY_ID=6436e7076eedf62b8d53f522&SESSION_ID=6436f19b2651ec5f08a02bc1&participant=25"},{"rt":60391,"response":{"less":1,"more":4,"equal":2},"question_order":[0,1,2],"type":"response","story":"gifts","social_interaction":"precedent","vignette":"Consider two families, the Lee family and the Min family. Every year, each member of the Lee family gives the Min family a precious and expensive gift. How likely is it that","answer_labels":{"less":"The Lee family and the Min family are in a relationship where the Lee family has less power, status, or influence than the Min family.","more":"The Lee family and the Min family are in a relationship where the Lee family has more power, status, or influence than the Min family.","equal":"The Lee family and the Min family are in a relationship where they have equal power, status, or influence."},"trial_type":"survey-likert","trial_index":34,"time_elapsed":950853,"internal_node_id":"0.0-3.0-0.15","subject_id":"63c25e4d8faec4d0ce9b0971","study_id":"6436e7076eedf62b8d53f522","session_id":"6436f19b2651ec5f08a02bc1","condition_number":25,"params":{"completionMinutes":20,"basePay":"5","likertLabels":["Extremely unlikely","Unlikely","Somewhat unlikely","Neither likely nor unlikely","Somewhat likely","Likely","Extremely likely"]},"url":"https://gershmanlab.com/experiments/alicia/PRE_exp3/experiment/index.html?PROLIFIC_PID=63c25e4d8faec4d0ce9b0971&STUDY_ID=6436e7076eedf62b8d53f522&SESSION_ID=6436f19b2651ec5f08a02bc1&participant=25"},{"rt":38389,"response":{"less":1,"more":1,"equal":5},"question_order":[0,1,2],"type":"response","story":"groceries","social_interaction":"reciprocity","vignette":"Consider Dylan and Caleb, who live on the 5th floor of a walkup in Manhattan, with a steep narrow staircase. Each of them comes home from the grocery store about once a week, and take turns helping each other carry the groceries up the stairs. How likely is it that","answer_labels":{"less":"Caleb and Dylan are in a relationship where Caleb has less power, status, or influence than Dylan.","more":"Caleb are in a relationship where Caleb has more power, status, or influence than Dylan.","equal":"Caleb and Dylan are in a relationship where they have equal power, status, or influence."},"trial_type":"survey-likert","trial_index":36,"time_elapsed":990779,"internal_node_id":"0.0-3.0-0.16","subject_id":"63c25e4d8faec4d0ce9b0971","study_id":"6436e7076eedf62b8d53f522","session_id":"6436f19b2651ec5f08a02bc1","condition_number":25,"params":{"completionMinutes":20,"basePay":"5","likertLabels":["Extremely unlikely","Unlikely","Somewhat unlikely","Neither likely nor unlikely","Somewhat likely","Likely","Extremely likely"]},"url":"https://gershmanlab.com/experiments/alicia/PRE_exp3/experiment/index.html?PROLIFIC_PID=63c25e4d8faec4d0ce9b0971&STUDY_ID=6436e7076eedf62b8d53f522&SESSION_ID=6436f19b2651ec5f08a02bc1&participant=25"},{"rt":39179,"response":{"less":1,"more":4,"equal":2},"question_order":[0,1,2],"type":"response","story":"housemates","social_interaction":"reciprocity","vignette":"Consider Sarah and Anne, who both live in the same old building. Any time Sarah notices something damaged or missing or needed for the house, like pipes or wires or detergent or batteries, she writes it on a list. Each week, they alternate turns completing the tasks on the list. How likely is it that","answer_labels":{"less":"Anne and Sarah are in a relationship where Anne has less power, status, or influence than Sarah.","more":"Anne and Sarah are in a relationship where Anne has more power, status, or influence than Sarah.","equal":"Anne and Sarah are in a relationship where they have equal power, status, or influence."},"trial_type":"survey-likert","trial_index":38,"time_elapsed":1033383,"internal_node_id":"0.0-3.0-0.17","subject_id":"63c25e4d8faec4d0ce9b0971","study_id":"6436e7076eedf62b8d53f522","session_id":"6436f19b2651ec5f08a02bc1","condition_number":25,"params":{"completionMinutes":20,"basePay":"5","likertLabels":["Extremely unlikely","Unlikely","Somewhat unlikely","Neither likely nor unlikely","Somewhat likely","Likely","Extremely likely"]},"url":"https://gershmanlab.com/experiments/alicia/PRE_exp3/experiment/index.html?PROLIFIC_PID=63c25e4d8faec4d0ce9b0971&STUDY_ID=6436e7076eedf62b8d53f522&SESSION_ID=6436f19b2651ec5f08a02bc1&participant=25"},{"rt":32735,"response":{"less":6,"more":0,"equal":6},"question_order":[0,1,2],"type":"response","story":"","social_interaction":"attention","vignette":"Thank you for contributing to this study! This page is an attention check so we can make sure you're not a bot and can award you your pay when you complete the study.","answer_labels":{"less":"Please select \"extremely likely\" for this question.","more":"Please select \"extremely unlikely\" for this question.","equal":"Please select \"extremely likely\" for this question."},"trial_type":"survey-likert","trial_index":40,"time_elapsed":1068159,"internal_node_id":"0.0-4.0","subject_id":"63c25e4d8faec4d0ce9b0971","study_id":"6436e7076eedf62b8d53f522","session_id":"6436f19b2651ec5f08a02bc1","condition_number":25,"params":{"completionMinutes":20,"basePay":"5","likertLabels":["Extremely unlikely","Unlikely","Somewhat unlikely","Neither likely nor unlikely","Somewhat likely","Likely","Extremely likely"]},"url":"https://gershmanlab.com/experiments/alicia/PRE_exp3/experiment/index.html?PROLIFIC_PID=63c25e4d8faec4d0ce9b0971&STUDY_ID=6436e7076eedf62b8d53f522&SESSION_ID=6436f19b2651ec5f08a02bc1&participant=25","passAttentionCheck":true},{"rt":18706,"response":{"gender":"male","age":"49","understood":"yes","comments":"            "},"type":"response","trial_type":"survey-html-form","trial_index":41,"time_elapsed":1086872,"internal_node_id":"0.0-5.0","subject_id":"63c25e4d8faec4d0ce9b0971","study_id":"6436e7076eedf62b8d53f522","session_id":"6436f19b2651ec5f08a02bc1","condition_number":25,"params":{"completionMinutes":20,"basePay":"5","likertLabels":["Extremely unlikely","Unlikely","Somewhat unlikely","Neither likely nor unlikely","Somewhat likely","Likely","Extremely likely"]},"url":"https://gershmanlab.com/experiments/alicia/PRE_exp3/experiment/index.html?PROLIFIC_PID=63c25e4d8faec4d0ce9b0971&STUDY_ID=6436e7076eedf62b8d53f522&SESSION_ID=6436f19b2651ec5f08a02bc1&participant=25"}]